Pitch,Roll,Gyro_X,Gyro_Y,Gyro_Z,Accel_X,Accel_Y,Accel_Z
0.2789429,4.265618,-1.0287439,0.029361458,0.3879565,-0.9959879,-10.352529,-3.466804
0.27928263,4.264117,-0.93819636,0.0005993177,0.34641117,-1.0295067,-10.299856,-3.6822822
0.27928263,4.264117,-0.93819636,0.0005993177,0.34641117,-1.0295067,-10.299856,-3.6822822
0.2794842,4.2632055,-0.85190994,-0.023901764,0.3038006,-1.0534488,-10.223241,-3.86903
0.2796517,4.2623816,-0.85190994,-0.023901764,0.3038006,-1.0534488,-10.223241,-3.86903
0.27981967,4.2615557,-0.7698846,-0.047337584,0.26225528,-1.1300632,-10.170568,-4.0653543
0.27995396,4.260816,-0.7698846,-0.047337584,0.26225528,-1.1300632,-10.170568,-4.0653543
0.28018907,4.259425,-0.69212025,-0.06970814,0.22070996,-1.2785037,-10.170568,-4.2664676
0.28018907,4.259425,-0.69212025,-0.06970814,0.22070996,-1.2785037,-10.170568,-4.2664676
0.2802925,4.2587576,-0.61542124,-0.09420922,0.18022992,-1.3599066,-10.156203,-4.3478703
0.28043714,4.257644,-0.61542124,-0.09420922,0.18022992,-1.3599066,-10.156203,-4.3478703
0.2804819,4.2571464,-0.541918,-0.121906094,0.13974987,-1.3934253,-10.1226845,-4.525041
0.2804819,4.2571464,-0.541918,-0.121906094,0.13974987,-1.3934253,-10.1226845,-4.525041
0.280529,4.2566257,-0.4662842,-0.1517335,0.10033509,-1.4317327,-10.103531,-4.721366
0.28056592,4.2557864,-0.4662842,-0.1517335,0.10033509,-1.4317327,-10.103531,-4.721366
0.28055975,4.2554417,-0.38638934,-0.1815609,0.059855036,-1.4317327,-10.103531,-4.936844
0.28055975,4.2554417,-0.38638934,-0.1815609,0.059855036,-1.4317327,-10.103531,-4.936844
0.28055337,4.255083,-0.38638934,-0.1815609,0.059855036,-1.4317327,-10.103531,-4.936844
0.28049785,4.254591,-0.304364,-0.21351884,0.019374989,-1.3503298,-10.060435,-4.927267
0.28044838,4.2544374,-0.21807757,-0.2476073,-0.02110506,-1.3024458,-9.964667,-4.9464207
0.280399,4.254283,-0.21807757,-0.2476073,-0.02110506,-1.3024458,-9.964667,-4.9464207
0.28032884,4.2542257,-0.12859535,-0.28169575,-0.06158511,-1.2210429,-9.945514,-5.046977
0.2802586,4.2541676,-0.12859535,-0.28169575,-0.06158511,-1.2210429,-9.945514,-5.046977
0.2801689,4.254204,-0.032721557,-0.31045792,-0.10099989,-1.1779473,-9.825804,-5.2145715
0.28007898,4.2542396,-0.032721557,-0.31045792,-0.10099989,-1.1779473,-9.825804,-5.2145715
0.27996665,4.254384,0.0674133,-0.3402853,-0.14254521,-1.0965444,-9.730036,-5.2528787
0.27985388,4.2545285,0.0674133,-0.3402853,-0.14254521,-1.0965444,-9.730036,-5.2528787
0.27971965,4.254781,0.17074396,-0.36904746,-0.18409052,-1.0630256,-9.557653,-5.2959743
0.27958408,4.2550354,0.17074396,-0.36904746,-0.18409052,-1.0630256,-9.557653,-5.2959743
0.27942976,4.255395,0.27620512,-0.39567906,-0.22457057,-1.0103531,-9.471462,-5.425261
0.27927455,4.255756,0.27620512,-0.39567906,-0.22457057,-1.0103531,-9.471462,-5.425261
0.2790947,4.2562304,0.3827316,-0.41698435,-0.26398537,-0.92416185,-9.375694,-5.449203
0.2789139,4.256707,0.3827316,-0.41698435,-0.26398537,-0.92416185,-9.375694,-5.449203
0.27871162,4.2572985,0.49138856,-0.43828964,-0.30020434,-0.94331545,-9.3421755,-5.45878
0.27850902,4.2578897,0.49138856,-0.43828964,-0.30020434,-0.94331545,-9.3421755,-5.45878
0.27828753,4.258595,0.6011108,-0.4542686,-0.331097,-0.9959879,-9.294291,-5.463568
0.27806553,4.259301,0.6011108,-0.4542686,-0.331097,-0.9959879,-9.294291,-5.463568
0.2778288,4.260115,0.7087025,-0.4691823,-0.35985917,-1.0773908,-9.279925,-5.5641246
0.27759275,4.260926,0.7087025,-0.4691823,-0.35985917,-1.0773908,-9.279925,-5.5641246
0.27734303,4.261851,0.81522894,-0.48303074,-0.38222972,-1.1348516,-9.217676,-5.5401826
0.2770936,4.262774,0.81522894,-0.48303074,-0.38222972,-1.1348516,-9.217676,-5.5401826
0.27683604,4.2638016,0.91749436,-0.49794444,-0.40140447,-1.1444284,-9.184157,-5.602432
0.2765784,4.2648277,0.91749436,-0.49794444,-0.40140447,-1.1444284,-9.184157,-5.602432
0.27631363,4.2659607,1.0165639,-0.5160539,-0.41631818,-1.2114661,-9.198523,-5.521029
0.2760487,4.267093,1.0165639,-0.5160539,-0.41631818,-1.2114661,-9.198523,-5.521029
0.27578354,4.268324,1.1103072,-0.53735924,-0.42590556,-1.2880806,-9.241618,-5.45878
0.27551708,4.2695594,1.1103072,-0.53735924,-0.42590556,-1.2880806,-9.241618,-5.45878
0.27525496,4.270892,1.1997894,-0.56079507,-0.43229714,-1.3215994,-9.208099,-5.434838
0.2749945,4.272214,1.1997894,-0.56079507,-0.43229714,-1.3215994,-9.208099,-5.434838
0.27473524,4.2736344,1.2860758,-0.5863614,-0.4365582,-1.3072342,-9.232041,-5.305551
0.27447382,4.2750635,1.2860758,-0.5863614,-0.4365582,-1.3072342,-9.232041,-5.305551
0.27422455,4.276575,1.3691665,-0.61405826,-0.43549293,-1.3072342,-9.222465,-5.2480903
0.27397704,4.2780724,1.3691665,-0.61405826,-0.43549293,-1.3072342,-9.222465,-5.2480903
0.2737394,4.2796855,1.4511918,-0.64175516,-0.4312319,-1.3359646,-9.255983,-5.2241483
0.2735013,4.2812977,1.4511918,-0.64175516,-0.4312319,-1.3359646,-9.255983,-5.2241483
0.2732786,4.2829857,1.5332172,-0.67051727,-0.4269708,-1.4269443,-9.351752,-5.1666875
0.27305493,4.284676,1.5332172,-0.67051727,-0.4269708,-1.4269443,-9.351752,-5.1666875
0.2728434,4.2864575,1.6120467,-0.70140994,-0.4216445,-1.4030021,-9.361329,-5.056554
0.2726315,4.2882357,1.6120467,-0.70140994,-0.4216445,-1.4030021,-9.361329,-5.056554
0.2724349,4.290106,1.6887459,-0.73123735,-0.4131224,-1.4317327,-9.370906,-4.9559975
0.2722376,4.2919765,1.6887459,-0.73123735,-0.4131224,-1.4317327,-9.370906,-4.9559975
0.27205968,4.293916,1.7611837,-0.76213,-0.40246972,-1.4317327,-9.457097,-4.9176903
0.2718795,4.29587,1.7611837,-0.76213,-0.40246972,-1.4317327,-9.457097,-4.9176903
0.2717166,4.2978888,1.8314912,-0.7908922,-0.39394763,-1.436521,-9.485827,-4.8602295
0.2717166,4.2978888,1.8314912,-0.7908922,-0.39394763,-1.436521,-9.485827,-4.8602295
0.2715074,4.3004603,1.8314912,-0.7908922,-0.39394763,-1.3838485,-9.476251,-4.817134
0.27139086,4.302102,1.8954071,-0.8164585,-0.38436025,-1.3838485,-9.476251,-4.817134
0.27124175,4.3041887,1.8954071,-0.8164585,-0.38436025,-1.3838485,-9.476251,-4.817134
0.27097243,4.3084,1.9561272,-0.8377638,-0.37264234,-1.2593501,-9.548077,-4.735731
0.27097243,4.3084,2.0147166,-0.8537428,-0.36412022,-1.2114661,-9.581595,-4.6830587
0.27084062,4.3106766,2.0147166,-0.8537428,-0.36412022,-1.2114661,-9.581595,-4.6830587
0.2707134,4.312853,2.0690453,-0.8633302,-0.3555981,-1.292869,-9.706094,-4.687847
0.27059293,4.315132,2.0690453,-0.8633302,-0.3555981,-1.292869,-9.706094,-4.687847
0.27047092,4.317416,2.1212432,-0.8697218,-0.34814125,-1.484405,-9.849746,-4.735731
0.27035952,4.319745,2.1212432,-0.8697218,-0.34814125,-1.484405,-9.849746,-4.735731
0.27024704,4.3220735,2.1702454,-0.8771786,-0.34388018,-1.7764976,-9.873688,-4.7405195
0.27014762,4.324443,2.1702454,-0.8771786,-0.34388018,-1.7764976,-9.873688,-4.7405195
0.27004752,4.326811,2.2160518,-0.89315754,-0.33855388,-1.8770541,-9.873688,-4.8219223
0.26988363,4.331613,2.2160518,-0.89315754,-0.33855388,-1.8770541,-9.873688,-4.8219223
0.26988363,4.331613,2.265054,-0.9155281,-0.3342928,-1.8962077,-10.070012,-4.711789
0.26971826,4.3365564,2.265054,-0.9155281,-0.3342928,-1.8962077,-10.070012,-4.711789
0.26971826,4.3365564,2.3193824,-0.94322497,-0.33535808,-1.7908629,-10.31901,-4.477157
0.26952457,4.3416657,2.3193824,-0.94322497,-0.33535808,-1.7908629,-10.31901,-4.477157
0.26952457,4.3416657,2.3832982,-0.9762482,-0.33855388,-1.7238252,-10.477027,-4.477157
0.26933524,4.3469253,2.3832982,-0.9762482,-0.33855388,-1.7238252,-10.477027,-4.477157
0.26933524,4.3469253,2.4557362,-1.0124671,-0.34494546,-1.6232687,-10.5680065,-4.3239284
0.26914105,4.352287,2.4557362,-1.0124671,-0.34494546,-1.6232687,-10.5680065,-4.3239284
0.26914105,4.352287,2.538827,-1.0486861,-0.35879388,-1.6711528,-10.730812,-4.012682
0.2690293,4.355236,2.538827,-1.0486861,-0.35879388,-1.6711528,-10.730812,-4.012682
0.26880118,4.361043,2.6357658,-1.0881009,-0.37903392,-1.757344,-10.888829,-3.8259344
0.26868004,4.3640003,2.6357658,-1.0881009,-0.37903392,-1.757344,-10.888829,-3.8259344
0.2685483,4.3671126,2.7454882,-1.128581,-0.40246972,-1.7142484,-10.965444,-3.7205894
0.2684123,4.370209,2.7454882,-1.128581,-0.40246972,-1.7142484,-10.965444,-3.7205894
0.26826224,4.3734417,2.8637326,-1.1711916,-0.4301666,-1.7669208,-11.013328,-3.6535518
0.2681069,4.376671,2.8637326,-1.1711916,-0.4301666,-1.7669208,-11.013328,-3.6535518
0.2679299,4.3800297,2.990499,-1.2095411,-0.45999402,-1.7525556,-10.989386,-3.7014358
0.2677481,4.3833838,2.990499,-1.2095411,-0.45999402,-1.7525556,-10.989386,-3.7014358
0.26754293,4.386883,3.119396,-1.2468253,-0.49301723,-1.7046716,-10.951078,-3.6104562
0.26733258,4.3903775,3.119396,-1.2468253,-0.49301723,-1.7046716,-10.951078,-3.6104562
0.2670966,4.394007,3.2450972,-1.2841096,-0.5271057,-1.7238252,-10.783484,-3.5434184
0.2668554,4.397632,3.2450972,-1.2841096,-0.5271057,-1.7238252,-10.783484,-3.5434184
0.2665853,4.4014,3.3676026,-1.3235244,-0.5654552,-1.6328455,-10.635044,-3.371036
0.2663094,4.405164,3.3676026,-1.3235244,-0.5654552,-1.6328455,-10.635044,-3.371036
0.26600158,4.4090605,3.4837165,-1.3586781,-0.60486996,-1.541866,-10.524911,-3.2321723
0.26568845,4.412941,3.4837165,-1.3586781,-0.60486996,-1.541866,-10.524911,-3.2321723
0.26534188,4.416982,3.591308,-1.3927666,-0.6464153,-1.2401965,-10.419566,-2.920926
0.26498908,4.4210067,3.591308,-1.3927666,-0.6464153,-1.2401965,-10.419566,-2.920926
0.26459652,4.4251585,3.6946387,-1.4268551,-0.6943522,-1.0342951,-10.232818,-2.6910827
0.26419818,4.429285,3.6946387,-1.4268551,-0.6943522,-1.0342951,-10.232818,-2.6910827
0.2637518,4.433568,3.7947736,-1.4566824,-0.7508112,-1.1779473,-10.204087,-2.456451
0.2632992,4.4378214,3.7947736,-1.4566824,-0.7508112,-1.1779473,-10.204087,-2.456451
0.26280984,4.4422374,3.8917127,-1.483314,-0.81259656,-1.4796166,-10.409989,-2.0685902
0.26231384,4.446624,3.8917127,-1.483314,-0.81259656,-1.4796166,-10.409989,-2.0685902
0.26177368,4.4511557,3.989717,-1.5088804,-0.8711861,-1.5705963,-10.500969,-1.8052281
0.2612268,4.455658,3.989717,-1.5088804,-0.8711861,-1.5705963,-10.500969,-1.8052281
0.26062346,4.4602957,4.086656,-1.5397731,-0.92977566,-1.3742718,-10.491392,-1.5514427
0.2600138,4.464903,4.086656,-1.5397731,-0.92977566,-1.3742718,-10.491392,-1.5514427
0.2593407,4.4696465,4.1857257,-1.571731,-0.99049574,-1.2114661,-10.481815,-1.4030021
0.2593407,4.4696465,4.1857257,-1.571731,-0.99049574,-1.2114661,-10.481815,-1.4030021
0.258653,4.4744153,4.1857257,-1.571731,-0.99049574,-1.2114661,-10.481815,-1.4030021
0.2577771,4.4801235,4.28373,-1.6058195,-1.0501505,-1.0869676,-10.433931,-1.2976574
0.2571038,4.484441,4.3774734,-1.6409732,-1.1108706,-1.043872,-10.395624,-1.0103531
0.25558582,4.4937124,4.3774734,-1.6409732,-1.1108706,-1.043872,-10.395624,-1.0103531
0.25469893,4.4988422,4.4701514,-1.6739964,-1.1715907,-1.0342951,-10.323798,-0.8762778
0.25469893,4.4988422,4.4701514,-1.6739964,-1.1715907,-1.0342951,-10.323798,-0.8762778
0.25378358,4.5040636,4.5596337,-1.7070196,-1.2312455,-1.0055647,-10.271125,-0.62249243
0.25191855,4.514226,4.5596337,-1.7070196,-1.2312455,-1.0055647,-10.271125,-0.62249243
0.25092056,4.51944,4.64592,-1.7432386,-1.2877045,-0.8810662,-10.218452,-0.33039984
0.24990173,4.5246973,4.64592,-1.7432386,-1.2877045,-0.8810662,-10.218452,-0.33039984
0.24883167,4.530002,4.7279453,-1.7773271,-1.3441635,-0.79487497,-10.117896,-0.21547815
0.24774644,4.5353184,4.7279453,-1.7773271,-1.3441635,-0.79487497,-10.117896,-0.21547815
0.24659985,4.5407085,4.8025136,-1.8050239,-1.3995572,-0.7182605,-9.959879,-0.17238252
0.24659985,4.5407085,4.8025136,-1.8050239,-1.3995572,-0.7182605,-9.959879,-0.17238252
0.24423407,4.551565,4.870691,-1.8273945,-1.4485594,-0.6655881,-9.921572,0.21547815
0.24423407,4.551565,4.870691,-1.8273945,-1.4485594,-0.6655881,-9.921572,0.21547815
0.24300493,4.557076,4.932476,-1.8455039,-1.4922353,-0.5793968,-9.921572,0.5315128
0.24174307,4.562592,4.932476,-1.8455039,-1.4922353,-0.5793968,-9.921572,0.5315128
0.2391568,4.573629,4.9910655,-1.8593525,-1.5337806,-0.41180268,-9.739613,0.79008657
0.23782046,4.5791993,4.9910655,-1.8593525,-1.5337806,-0.41180268,-9.739613,0.79008657
0.2364344,4.5848203,5.042198,-1.8710704,-1.5742606,-0.23942018,-9.490616,0.9816227
0.23503576,4.5904355,5.042198,-1.8710704,-1.5742606,-0.23942018,-9.490616,0.9816227
0.23359285,4.5960865,5.085874,-1.8785272,-1.6104796,-0.047884032,-9.246407,1.2066777
0.23359285,4.5960865,5.085874,-1.8785272,-1.6104796,-0.047884032,-9.246407,1.2066777
0.2314177,4.604505,5.085874,-1.8785272,-1.6104796,-0.047884032,-9.246407,1.2066777
0.2314177,4.604505,5.085874,-1.8785272,-1.6104796,-0.047884032,-9.246407,1.2066777
0.2314177,4.604505,5.085874,-1.8785272,-1.6104796,-0.047884032,-9.246407,1.2066777
0.2314177,4.604505,5.085874,-1.8785272,-1.6104796,-0.047884032,-9.246407,1.2066777
0.22458652,4.6297693,5.1391373,-1.8678745,-1.7031577,0.4165911,-8.058883,2.0829554
0.22357354,4.6333447,5.1391373,-1.8678745,-1.7031577,0.4165911,-8.058883,2.0829554
0.22287787,4.635789,5.1231585,-1.8465693,-1.7276587,0.25378537,-7.2592196,2.1883004
0.22124302,4.6414213,5.1231585,-1.8465693,-1.7276587,0.25378537,-7.2592196,2.1883004
0.21812157,4.6518908,5.085874,-1.8156766,-1.7436377,0.2873042,-6.6415157,2.3511062
0.2176878,4.6533337,5.085874,-1.8156766,-1.7436377,0.2873042,-6.6415157,2.3511062
0.2143379,4.664226,5.019828,-1.7837187,-1.7500293,1.1731589,-5.995081,2.4468741
0.2143379,4.664226,5.019828,-1.7837187,-1.7500293,1.1731589,-5.995081,2.4468741
0.21103235,4.674535,4.9175625,-1.7421733,-1.7564209,1.8531121,-5.401319,2.566584
0.20927367,4.6798887,4.9175625,-1.7421733,-1.7564209,1.8531121,-5.401319,2.566584
0.20749153,4.6850915,4.7780128,-1.6825185,-1.7638777,2.4899697,-4.865018,2.815581
0.20568387,4.6903358,4.7780128,-1.6825185,-1.7638777,2.4899697,-4.865018,2.815581
0.20387176,4.6953344,4.594787,-1.5983627,-1.7713345,3.0789435,-4.333505,3.1124623
0.20208038,4.7002482,4.594787,-1.5983627,-1.7713345,3.0789435,-4.333505,3.1124623
0.20024884,4.7049837,4.367886,-1.4843793,-1.7755957,3.596091,-3.7780502,3.4045548
0.19838585,4.709776,4.367886,-1.4843793,-1.7755957,3.596091,-3.7780502,3.4045548
0.19838585,4.709776,4.0962434,-1.3405687,-1.773465,4.003105,-3.2609026,3.7253778
0.19470371,4.718607,4.0962434,-1.3405687,-1.773465,4.003105,-3.2609026,3.7253778
0.19286335,4.722671,3.784121,-1.1722568,-1.7660083,4.5058875,-2.72939,3.9504328
0.19099583,4.72678,3.784121,-1.1722568,-1.7660083,4.5058875,-2.72939,3.9504328
0.19099583,4.72678,3.784121,-1.1722568,-1.7660083,4.5058875,-2.72939,3.9504328
0.18878792,4.7311854,3.426192,-0.9783787,-1.7553556,4.7165775,-2.030283,4.0078936
0.18550473,4.7373285,3.026718,-0.76106477,-1.7404419,5.032612,-1.340753,4.1611223
0.18371549,4.740483,3.026718,-0.76106477,-1.7404419,5.032612,-1.340753,4.1611223
0.18192367,4.743208,2.5825026,-0.52777183,-1.7180713,4.807557,-0.842759,4.309563
0.18013392,4.7459264,2.5825026,-0.52777183,-1.7180713,4.807557,-0.842759,4.309563
0.17840503,4.748107,2.0935464,-0.28702208,-1.6807871,3.6583402,0.02873042,4.146757
0.17666516,4.750299,2.0935464,-0.28702208,-1.6807871,3.6583402,0.02873042,4.146757
0.1749797,4.751919,1.5673057,-0.060120758,-1.6349807,4.687847,-0.22505496,4.9895163
0.17330264,4.7535295,1.5673057,-0.060120758,-1.6349807,4.687847,-0.22505496,4.9895163
0.1716849,4.7545605,1.0123029,0.1657153,-1.5742606,4.654328,-1.0869676,5.7029886
0.17007707,4.7555857,1.0123029,0.1657153,-1.5742606,4.654328,-1.0869676,5.7029886
0.16855949,4.7560196,0.45516956,0.41072613,-1.4901048,4.0174704,-1.4221559,5.755661
0.16704358,4.756454,0.45516956,0.41072613,-1.4901048,4.0174704,-1.4221559,5.755661
0.16563755,4.7562976,-0.09663743,0.639758,-1.3974267,3.9743748,-0.79008657,5.506664
0.16422433,4.756141,-0.09663743,0.639758,-1.3974267,3.9743748,-0.79008657,5.506664
0.16292247,4.755395,-0.65164024,0.85068035,-1.2962266,4.084508,-0.4309563,5.386954
0.16162516,4.754653,-0.65164024,0.85068035,-1.2962266,4.084508,-0.4309563,5.386954
0.16044745,4.7533045,-1.2204914,1.0541458,-1.1801128,3.2992098,-0.34476504,5.281609
0.16044745,4.7533045,-1.2204914,1.0541458,-1.1801128,3.2992098,-0.34476504,5.281609
0.1582165,4.750033,-1.7967995,1.2331103,-1.0554769,3.4811692,-1.043872,5.650316
0.15717481,4.7481055,-1.7967995,1.2331103,-1.0554769,3.4811692,-1.043872,5.650316
0.15625687,4.745572,-2.3677812,1.3875736,-0.9244493,3.5577838,-1.6567876,5.7125654
0.15534009,4.7430534,-2.3677812,1.3875736,-0.9244493,3.5577838,-1.6567876,5.7125654
0.15456052,4.7399416,-2.922784,1.5367106,-0.7817039,3.145981,-2.2409728,5.506664
0.15377946,4.736844,-2.922784,1.5367106,-0.7817039,3.145981,-2.2409728,5.506664
0.15315051,4.733196,-3.454351,1.6719992,-0.62724054,2.542642,-2.753332,5.023035
0.15251498,4.7295456,-3.454351,1.6719992,-0.62724054,2.542642,-2.753332,5.023035
0.15204404,4.725381,-3.9646127,1.7870479,-0.46212456,1.8387469,-3.1603463,4.534618
0.15156715,4.72123,-3.9646127,1.7870479,-0.46212456,1.8387469,-3.1603463,4.534618
0.1512565,4.71654,-4.454634,1.87653,-0.28422537,1.4173675,-3.8355112,3.9935284
0.15093894,4.711874,-4.454634,1.87653,-0.28422537,1.4173675,-3.8355112,3.9935284
0.15079902,4.706727,-4.923351,1.9447069,-0.095673576,1.0965444,-4.596867,3.5865142
0.1506502,4.7016068,-4.923351,1.9447069,-0.095673576,1.0965444,-4.596867,3.5865142
0.15068005,4.696001,-5.3654356,1.9926438,0.102465615,0.9911995,-5.530606,3.0454245
0.15069924,4.6904063,-5.3654356,1.9926438,0.102465615,0.9911995,-5.530606,3.0454245
0.15090396,4.6844,-5.7713013,2.025667,0.3069964,0.842759,-6.411672,2.5905263
0.15109597,4.6784296,-5.7713013,2.025667,0.3069964,0.842759,-6.411672,2.5905263
0.15147124,4.672036,-6.137752,2.0480375,0.51259243,0.7374141,-7.28795,2.0398598
0.1518337,4.6656547,-6.137752,2.0480375,0.51259243,0.7374141,-7.28795,2.0398598
0.15237874,4.658944,-6.4605274,2.0586903,0.71818846,0.6512229,-8.049306,1.6519991
0.15290858,4.6522655,-6.4605274,2.0586903,0.71818846,0.6512229,-8.049306,1.6519991
0.15361828,4.645261,-6.738561,2.057625,0.92058873,0.45489833,-8.7292595,1.1061212
0.1543136,4.6382685,-6.738561,2.057625,0.92058873,0.45489833,-8.7292595,1.1061212
0.15518627,4.6310415,-6.967593,2.0469723,1.1208584,0.17717093,-9.370906,0.6464345
0.15604334,4.6238337,-6.967593,2.0469723,1.1208584,0.17717093,-9.370906,0.6464345
0.15708207,4.6163898,-7.1529493,2.0267322,1.3221934,-0.15801731,-9.811439,0.11971009
0.158104,4.608974,-7.1529493,2.0267322,1.3221934,-0.15801731,-9.811439,0.11971009
0.1592968,4.6013937,-7.2988906,1.9969049,1.5203326,-0.40222588,-10.251971,-0.34955344
0.16047877,4.5938044,-7.2988906,1.9969049,1.5203326,-0.40222588,-10.251971,-0.34955344
0.16183834,4.586057,-7.405417,1.9628165,1.7184718,-0.6464345,-10.5919485,-0.7565677
0.1631693,4.57841,-7.405417,1.9628165,1.7184718,-0.6464345,-10.5919485,-0.7565677
0.16467495,4.5706143,-7.4735937,1.9265975,1.9176762,-0.8762778,-10.850522,-1.2018893
0.1661653,4.562845,-7.4735937,1.9265975,1.9176762,-0.8762778,-10.850522,-1.2018893
0.16783121,4.5549297,-7.5130086,1.892509,2.1147501,-0.94331545,-10.931925,-1.70946
0.16947627,4.5470366,-7.5130086,1.892509,2.1147501,-0.94331545,-10.931925,-1.70946
0.17131296,4.539076,-7.5257916,1.8648121,2.3054326,-0.92895025,-10.994174,-2.255338
0.17311789,4.53115,-7.5257916,1.8648121,2.3054326,-0.92895025,-10.994174,-2.255338
0.17514323,4.5231233,-7.518335,1.8445721,2.4950495,-0.90979666,-11.032481,-2.882619
0.17712931,4.5151496,-7.518335,1.8445721,2.4950495,-0.90979666,-11.032481,-2.882619
0.1793259,4.507078,-7.498095,1.8307236,2.6729488,-0.94810385,-10.91756,-3.5003228
0.1814703,4.4991055,-7.498095,1.8307236,2.6729488,-0.94810385,-10.91756,-3.5003228
0.1837752,4.4911084,-7.470398,1.8222015,2.834869,-0.9672575,-10.874464,-3.892972
0.18605168,4.483121,-7.470398,1.8222015,2.834869,-0.9672575,-10.874464,-3.892972
0.188489,4.475098,-7.4331136,1.820071,2.984006,-1.1492168,-10.783484,-4.4436383
0.19088832,4.467115,-7.4331136,1.820071,2.984006,-1.1492168,-10.783484,-4.4436383
0.19342235,4.459096,-7.393699,1.8168752,3.1182294,-1.1971009,-10.7116585,-4.7884035
0.19592011,4.4511075,-7.393699,1.8168752,3.1182294,-1.1971009,-10.7116585,-4.7884035
0.1985225,4.443137,-7.348958,1.811549,3.2354083,-1.3359646,-10.697293,-5.104438
0.20109326,4.43518,-7.348958,1.811549,3.2354083,-1.3359646,-10.697293,-5.104438
0.20376295,4.42721,-7.29676,1.8062226,3.3366084,-1.4413095,-10.721235,-5.410896
0.20639245,4.419276,-7.29676,1.8062226,3.3366084,-1.4413095,-10.721235,-5.410896
0.20912369,4.4112663,-7.2392354,1.7966352,3.422895,-1.4317327,-10.793061,-5.5497594
0.21177335,4.403411,-7.2392354,1.7966352,3.422895,-1.4317327,-10.793061,-5.5497594
0.2144951,4.395539,-7.1710587,1.7849172,3.4932024,-1.4700398,-10.869676,-5.66947
0.21718599,4.3876705,-7.1710587,1.7849172,3.4932024,-1.4700398,-10.869676,-5.66947
0.21991724,4.3798366,-7.092229,1.7731993,3.5464656,-1.4748282,-10.970232,-5.7987566
0.22263575,4.371952,-7.092229,1.7731993,3.5464656,-1.4748282,-10.970232,-5.7987566
0.22533205,4.3642473,-7.0006166,1.7657425,3.584815,-1.5035586,-11.027693,-5.81791
0.2280101,4.3565087,-7.0006166,1.7657425,3.584815,-1.5035586,-11.027693,-5.81791
0.23070619,4.3488235,-6.891959,1.7604162,3.6082509,-1.5179238,-11.03727,-6.1243677
0.23336239,4.341166,-6.891959,1.7604162,3.6082509,-1.5179238,-11.03727,-6.1243677
0.23601227,4.333577,-6.7683887,1.7550899,3.6157079,-1.3934253,-11.228806,-6.26802
0.23863001,4.3259935,-6.7683887,1.7550899,3.6157079,-1.3934253,-11.228806,-6.26802
0.24123609,4.3185344,-6.6309695,1.7455025,3.6071856,-1.6567876,-10.879252,-6.5218053
0.24380569,4.3110943,-6.6309695,1.7455025,3.6071856,-1.6567876,-10.879252,-6.5218053
0.24633633,4.303746,-6.4807673,1.7327193,3.580554,-1.2258313,-11.008539,-6.655881
0.24882126,4.296446,-6.4807673,1.7327193,3.580554,-1.2258313,-11.008539,-6.655881
0.25130063,4.2892284,-6.3209777,1.7220666,3.547531,-1.6519991,-10.692505,-6.981492
0.2537446,4.2820287,-6.3209777,1.7220666,3.547531,-1.6519991,-10.692505,-6.981492
0.25611043,4.275003,-6.160123,1.7092835,3.5017245,-1.5227122,-11.03727,-6.823475
0.2584462,4.2679825,-6.160123,1.7092835,3.5017245,-1.5227122,-11.03727,-6.823475
0.26070592,4.261121,-5.9854193,1.6890435,3.4452655,-1.3599066,-11.453861,-6.4499793
0.26292813,4.2542944,-5.9854193,1.6890435,3.4452655,-1.3599066,-11.453861,-6.4499793
0.26508847,4.2476344,-5.783019,1.6613466,3.3738928,-1.2545617,-11.473015,-6.4260373
0.26721156,4.2410154,-5.783019,1.6613466,3.3738928,-1.2545617,-11.473015,-6.4260373
0.2692575,4.23461,-5.5582485,1.6421719,3.293998,-1.5227122,-11.731588,-6.2871737
0.27129117,4.228175,-5.5582485,1.6421719,3.293998,-1.5227122,-11.731588,-6.2871737
0.27323538,4.2220783,-5.3164334,1.6219318,3.2087767,-2.2457612,-12.440272,-6.042965
0.27515116,4.2160206,-5.3164334,1.6219318,3.2087767,-2.2457612,-12.440272,-6.042965
0.27705327,4.210115,-5.0511823,1.5846475,3.12036,-2.6623523,-12.761095,-6.0716953
0.27705327,4.210115,-5.0511823,1.5846475,3.12036,-2.6623523,-12.761095,-6.0716953
0.27900648,4.2040005,-4.766757,1.5281886,3.0298123,-3.1411927,-13.168109,-6.0285997
0.28250217,4.1934285,-4.766757,1.5281886,3.0298123,-3.1411927,-13.168109,-6.0285997
0.28426614,4.1882634,-4.4663525,1.4472284,2.936069,-3.2321723,-13.488933,-5.995081
0.28600863,4.1831164,-4.4663525,1.4472284,2.936069,-3.2321723,-13.488933,-5.995081
0.28771216,4.178289,-4.1499686,1.3396367,2.8338037,-3.083732,-13.747506,-5.9424086
0.28940085,4.173465,-4.1499686,1.3396367,2.8338037,-3.083732,-13.747506,-5.9424086
0.29104325,4.16902,-3.816541,1.2139355,2.718755,-2.8921957,-13.9151,-5.7125654
0.2926805,4.164556,-3.816541,1.2139355,2.718755,-2.8921957,-13.9151,-5.7125654
0.2942612,4.1605034,-3.466069,1.0786469,2.5887928,-2.7102363,-13.9198885,-5.5641246
0.29582378,4.1564693,-3.466069,1.0786469,2.5887928,-2.7102363,-13.9198885,-5.5641246
0.29734665,4.152809,-3.103879,0.9422931,2.4513738,-2.6192567,-13.757083,-5.544971
0.29886532,4.1491365,-3.103879,0.9422931,2.4513738,-2.6192567,-13.757083,-5.544971
0.30031803,4.1459084,-2.733167,0.804874,2.303302,-2.6240451,-13.388376,-5.497087
0.30176196,4.142683,-2.733167,0.804874,2.303302,-2.6240451,-13.388376,-5.497087
0.303147,4.139875,-2.3581939,0.6663896,2.142447,-2.4708161,-13.843274,-5.3965306
0.30452326,4.137072,-2.3581939,0.6663896,2.142447,-2.4708161,-13.843274,-5.3965306
0.30583718,4.1347227,-1.9715029,0.53003573,1.9741353,-3.0597897,-12.6461735,-5.6120086
0.30583718,4.1347227,-1.9715029,0.53003573,1.9741353,-3.0597897,-12.6461735,-5.6120086
0.30837312,4.1304493,-1.5762898,0.3851598,1.7973014,-1.70946,-13.01488,-5.085284
0.30958533,4.128548,-1.5762898,0.3851598,1.7973014,-1.70946,-13.01488,-5.085284
0.3107202,4.1271005,-1.2034472,0.23708802,1.6044885,-1.8818425,-13.081918,-4.793192
0.31186032,4.125643,-1.2034472,0.23708802,1.6044885,-1.8818425,-13.081918,-4.793192
0.31289518,4.1246147,-0.8263436,0.13056158,1.4255241,-2.27928,-11.990162,-5.6120086
0.31289518,4.1246147,-0.8263436,0.13056158,1.4255241,-2.27928,-11.990162,-5.6120086
0.31424093,4.1232753,-0.44284838,-0.00366174,1.2231238,-1.982399,-11.884817,-5.889736
0.31494877,4.1228275,-0.44284838,-0.00366174,1.2231238,-1.982399,-11.884817,-5.889736
0.31586736,4.122246,-0.44284838,-0.00366174,1.2231238,-1.982399,-11.884817,-5.889736
0.3167598,4.1220407,-0.07000581,-0.14321138,1.0058099,-1.757344,-10.697293,-6.5026517
0.31808028,4.122076,0.28153145,-0.27530417,0.77890855,-0.89064306,-9.44752,-6.9527617
0.31808028,4.122076,0.28153145,-0.27530417,0.77890855,-0.89064306,-9.44752,-6.9527617
0.31897575,4.1223297,0.5915234,-0.39035273,0.54455036,-0.78050977,-8.700529,-7.053318
0.3198439,4.1232085,0.5915234,-0.39035273,0.54455036,-0.78050977,-8.700529,-7.053318
0.3198439,4.1232085,0.5915234,-0.39035273,0.54455036,-0.78050977,-8.700529,-7.053318
0.32063168,4.1250157,0.86316586,-0.47983494,0.3123227,-0.641646,-8.863335,-6.83784
0.32087424,4.1262283,1.1124377,-0.5544035,0.08329086,-0.7613561,-8.901642,-6.799533
0.32111672,4.127441,1.1124377,-0.5544035,0.08329086,-0.7613561,-8.901642,-6.799533
0.32121652,4.128948,1.3521222,-0.6215151,-0.13508835,-1.1587936,-9.064447,-6.9240313
0.32131666,4.1304646,1.3521222,-0.6215151,-0.13508835,-1.1587936,-9.064447,-6.9240313
0.32127947,4.1322517,1.5854151,-0.68862677,-0.34068438,-1.4413095,-9.375694,-6.9719152
0.32124117,4.134048,1.5854151,-0.68862677,-0.34068438,-1.4413095,-9.375694,-6.9719152
0.32108015,4.1361356,1.8176428,-0.7631953,-0.5313667,-1.5801731,-9.662998,-6.9862804
0.32091776,4.1382236,1.8176428,-0.7631953,-0.5313667,-1.5801731,-9.662998,-6.9862804
0.3206495,4.140627,2.056262,-0.8441554,-0.7007438,-1.7669208,-10.0029745,-6.909666
0.3203803,4.1430182,2.056262,-0.8441554,-0.7007438,-1.7669208,-10.0029745,-6.909666
0.32002535,4.1457205,2.3023381,-0.92937654,-0.8498808,-1.9009962,-10.333375,-6.9048777
0.31966874,4.1484113,2.3023381,-0.92937654,-0.8498808,-1.9009962,-10.333375,-6.9048777
0.3192479,4.15141,2.5590668,-1.0145977,-0.97451675,-2.2936451,-10.58716,-6.933608
0.31882408,4.154402,2.5590668,-1.0145977,-0.97451675,-2.2936451,-10.58716,-6.933608
0.31835496,4.157725,2.821122,-1.1030147,-1.0735863,-2.9879637,-10.874464,-6.7612257
0.31788114,4.1610413,2.821122,-1.1030147,-1.0735863,-2.9879637,-10.874464,-6.7612257
0.3173927,4.164697,3.0885034,-1.1999537,-1.1502854,-3.2704794,-11.15698,-6.5744777
0.31689635,4.1683445,3.0885034,-1.1999537,-1.1502854,-3.2704794,-11.15698,-6.5744777
0.31640157,4.172325,3.3644068,-1.3064802,-1.2046139,-3.0550013,-11.324574,-6.5265937
0.31590113,4.1762743,3.3644068,-1.3064802,-1.2046139,-3.0550013,-11.324574,-6.5265937
0.31542125,4.1805506,3.6403103,-1.4172677,-1.237637,-2.882619,-11.372458,-6.4164605
0.31493187,4.1848197,3.6403103,-1.4172677,-1.237637,-2.882619,-11.372458,-6.4164605
0.31447288,4.189401,3.9098222,-1.5237942,-1.2589424,-2.858677,-11.473015,-6.277597
0.3140043,4.193962,3.9098222,-1.5237942,-1.2589424,-2.858677,-11.473015,-6.277597
0.3135691,4.1988397,4.165486,-1.6249943,-1.2685298,-3.0454245,-11.463438,-6.1626754
0.31312308,4.203689,4.165486,-1.6249943,-1.2685298,-3.0454245,-11.463438,-6.1626754
0.31312308,4.203689,4.165486,-1.6249943,-1.2685298,-3.0454245,-11.463438,-6.1626754
0.31231144,4.214008,4.4083657,-1.7229986,-1.2685298,-3.2225955,-11.463438,-5.923255
0.31196693,4.219433,4.6363325,-1.8188723,-1.2632034,-3.7253778,-11.334151,-5.827487
0.31159768,4.2248516,4.6363325,-1.8188723,-1.2632034,-3.7253778,-11.334151,-5.827487
0.31129545,4.230504,4.84832,-1.9190072,-1.2472245,-3.7301662,-11.228806,-5.650316
0.3109639,4.236166,4.84832,-1.9190072,-1.2472245,-3.7301662,-11.228806,-5.650316
0.31065732,4.2420096,5.0475245,-2.0212727,-1.2248539,-3.1316159,-11.161768,-5.57849
0.31033677,4.2478046,5.0475245,-2.0212727,-1.2248539,-3.1316159,-11.161768,-5.57849
0.31005836,4.253835,5.2318153,-2.1160812,-1.2067444,-2.930503,-10.955867,-5.439626
0.30976623,4.259847,5.2318153,-2.1160812,-1.2067444,-2.930503,-10.955867,-5.439626
0.30951288,4.266039,5.400127,-2.2034328,-1.1897001,-2.7868507,-10.788273,-5.2624555
0.3092459,4.2722125,5.400127,-2.2034328,-1.1897001,-2.7868507,-10.788273,-5.2624555
0.30900675,4.278573,5.5535254,-2.2822623,-1.1779822,-2.8299465,-10.630256,-5.094861
0.30875337,4.2849517,5.5535254,-2.2822623,-1.1779822,-2.8299465,-10.630256,-5.094861
0.3085174,4.291451,5.690944,-2.3547003,-1.1726559,-2.8107927,-10.496181,-4.88896
0.30826876,4.2979302,5.690944,-2.3547003,-1.1726559,-2.8107927,-10.496181,-4.88896
0.30802822,4.304597,5.81345,-2.4186163,-1.1705254,-2.753332,-10.323798,-4.721366
0.30777732,4.3111973,5.81345,-2.4186163,-1.1705254,-2.753332,-10.323798,-4.721366
0.3075183,4.3179846,5.9210415,-2.4750752,-1.1715907,-2.5617957,-10.19451,-4.43885
0.30724484,4.324746,5.9210415,-2.4750752,-1.1715907,-2.5617957,-10.19451,-4.43885
0.3069597,4.3316245,6.011589,-2.5187511,-1.1758517,-2.327164,-10.079589,-4.1659107
0.3066561,4.338519,6.011589,-2.5187511,-1.1758517,-2.327164,-10.079589,-4.1659107
0.3063341,4.345489,6.084027,-2.5443175,-1.1833086,-2.1499932,-9.844957,-3.8642416
0.3059935,4.352448,6.084027,-2.5443175,-1.1833086,-2.1499932,-9.844957,-3.8642416
0.30563015,4.3594885,6.1383553,-2.550709,-1.1897001,-1.7717092,-9.715671,-3.4811692
0.3052458,4.3665204,6.1383553,-2.550709,-1.1897001,-1.7717092,-9.715671,-3.4811692
0.30483162,4.3735876,6.173509,-2.5389912,-1.1992875,-1.4796166,-9.495404,-3.1747115
0.30439645,4.380646,6.173509,-2.5389912,-1.1992875,-1.4796166,-9.495404,-3.1747115
0.30391866,4.387724,6.1841617,-2.5080984,-1.213136,-1.091756,-9.126697,-2.896984
0.3034217,4.3947725,6.1841617,-2.5080984,-1.213136,-1.091756,-9.126697,-2.896984
0.3028687,4.4018326,6.169248,-2.458031,-1.2323108,-0.7038953,-8.825027,-2.7150247
0.30229846,4.40885,6.169248,-2.458031,-1.2323108,-0.7038953,-8.825027,-2.7150247
0.30166325,4.415803,6.124507,-2.3845277,-1.2568119,-0.35434186,-8.346188,-2.5713725
0.30100942,4.422748,6.124507,-2.3845277,-1.2568119,-0.35434186,-8.346188,-2.5713725
0.30028397,4.429557,6.0435467,-2.288654,-1.2866392,0.062249243,-7.848193,-2.4660277
0.2995382,4.436387,6.0435467,-2.288654,-1.2866392,0.062249243,-7.848193,-2.4660277
0.29871458,4.443036,5.923172,-2.171475,-1.3196625,0.30645782,-7.2687964,-2.3319526
0.29786995,4.4497185,5.923172,-2.171475,-1.3196625,0.30645782,-7.2687964,-2.3319526
0.29786995,4.4497185,5.923172,-2.171475,-1.3196625,0.30645782,-7.2687964,-2.3319526
0.29666984,4.458079,5.765513,-2.0361862,-1.353751,0.39743748,-6.7229185,-2.0446482
0.29592985,4.463145,5.765513,-2.0361862,-1.353751,0.39743748,-6.7229185,-2.0446482
0.29393187,4.4751263,5.5673738,-1.8827882,-1.3910352,0.40701428,-6.2009826,-1.7669208
0.29281962,4.4810038,5.3340807,-1.716607,-1.4251236,0.5554548,-5.6790466,-1.3024458
0.2916826,4.4869404,5.3340807,-1.716607,-1.4251236,0.5554548,-5.6790466,-1.3024458
0.29047993,4.492569,5.073091,-1.5387079,-1.454951,0.7757214,-5.243302,-0.7278373
0.28925642,4.4982376,5.073091,-1.5387079,-1.454951,0.7757214,-5.243302,-0.7278373
0.28798127,4.503525,4.7844043,-1.3490907,-1.4815826,1.0773908,-4.8219223,-0.23463176
0.2866876,4.508844,4.7844043,-1.3490907,-1.4815826,1.0773908,-4.8219223,-0.23463176
0.2853418,4.513785,4.473347,-1.148821,-1.502888,1.3359646,-4.4340615,0.23463176
0.2839897,4.518717,4.473347,-1.148821,-1.502888,1.3359646,-4.4340615,0.23463176
0.2825852,4.5232563,4.1409845,-0.94109446,-1.5231279,1.4891934,-4.0653543,0.6655881
0.28116757,4.5278144,4.1409845,-0.94109446,-1.5231279,1.4891934,-4.0653543,0.6655881
0.2797036,4.531947,3.7894473,-0.7301721,-1.5380416,1.6711528,-3.7924154,0.9768343
0.27823505,4.536076,3.7894473,-0.7301721,-1.5380416,1.6711528,-3.7924154,0.9768343
0.27672723,4.539776,3.4198005,-0.5171192,-1.547629,1.910573,-3.5577838,1.4796166
0.27521613,4.543473,3.4198005,-0.5171192,-1.547629,1.910573,-3.5577838,1.4796166
0.27367508,4.546707,3.0288484,-0.30300105,-1.5508248,2.1547816,-3.3518825,1.8866309
0.27367508,4.546707,3.0288484,-0.30300105,-1.5508248,2.1547816,-3.3518825,1.8866309
0.2705489,4.5527496,2.6219175,-0.08462184,-1.5454985,2.2888567,-3.1268275,2.2505496
0.2689685,4.5555325,2.6219175,-0.08462184,-1.5454985,2.2888567,-3.1268275,2.2505496
0.26737964,4.5578146,2.196877,0.13482264,-1.5316501,2.408567,-2.9879637,2.6001031
0.26578885,4.5600986,2.196877,0.13482264,-1.5316501,2.408567,-2.9879637,2.6001031
0.2641905,4.5618844,1.7558575,0.35533237,-1.5092795,2.4372973,-2.8491,3.098097
0.26259556,4.563667,1.7558575,0.35533237,-1.5092795,2.4372973,-2.8491,3.098097
0.2610057,4.5649304,1.2956632,0.5737116,-1.475191,2.552219,-2.7246015,3.6056678
0.25942412,4.566188,1.2956632,0.5737116,-1.475191,2.552219,-2.7246015,3.6056678
0.25784773,4.566918,0.81842476,0.78996027,-1.4283195,2.6288335,-2.719813,3.9456444
0.25784773,4.566918,0.81842476,0.78996027,-1.4283195,2.6288335,-2.719813,3.9456444
0.25627497,4.5676475,0.81842476,0.78996027,-1.4283195,2.6288335,-2.719813,3.9456444
0.25320593,4.568,0.32414204,1.0040784,-1.3707951,2.801216,-2.6719291,4.414908
0.25169805,4.5676117,-0.18611965,1.216066,-1.3036835,2.8538885,-2.743755,4.711789
0.25019592,4.567226,-0.18611965,1.216066,-1.3036835,2.8538885,-2.743755,4.711789
0.2487378,4.5662603,-0.71236026,1.4237926,-1.2280496,2.695871,-2.7485435,4.9703627
0.24728158,4.5652995,-0.71236026,1.4237926,-1.2280496,2.695871,-2.7485435,4.9703627
0.24588113,4.5637445,-1.2545799,1.6198013,-1.1417632,2.4708161,-2.7820623,5.2720323
0.24448134,4.562196,-1.2545799,1.6198013,-1.1417632,2.4708161,-2.7820623,5.2720323
0.24314614,4.560051,-1.8053216,1.7977004,-1.04802,2.207454,-2.7581203,5.353435
0.24181035,4.5579133,-1.8053216,1.7977004,-1.04802,2.207454,-2.7581203,5.353435
0.24054632,4.555171,-2.362455,1.9564248,-0.9436241,1.910573,-2.992752,5.434838
0.23928006,4.5524373,-2.362455,1.9564248,-0.9436241,1.910573,-2.992752,5.434838
0.23810181,4.549114,-2.9163923,2.0927787,-0.8285755,1.460463,-3.3087866,5.329493
0.23691961,4.5458016,-2.9163923,2.0927787,-0.8285755,1.460463,-3.3087866,5.329493
0.23583557,4.541918,-3.458612,2.2056968,-0.7060701,0.8571242,-3.8115692,5.2145715
0.23474593,4.5380454,-3.458612,2.2056968,-0.7060701,0.8571242,-3.8115692,5.2145715
0.23376311,4.533617,-3.978461,2.2898526,-0.57291204,0.3878607,-4.3287168,5.0182467
0.23277299,4.529201,-3.978461,2.2898526,-0.57291204,0.3878607,-4.3287168,5.0182467
0.23190634,4.524289,-4.4663525,2.344181,-0.4301666,-0.02873042,-4.9416323,4.7070007
0.23102736,4.51937,-4.4663525,2.344181,-0.4301666,-0.02873042,-4.9416323,4.7070007
0.2302774,4.5139995,-4.915894,2.367617,-0.28102958,-0.11971009,-5.57849,4.232949
0.22951779,4.508648,-4.915894,2.367617,-0.28102958,-0.11971009,-5.57849,4.232949
0.22889325,4.5028477,-5.328151,2.3665516,-0.122305185,-0.076614454,-6.196194,3.8642416
0.22825758,4.4970665,-5.328151,2.3665516,-0.122305185,-0.076614454,-6.196194,3.8642416
0.22776711,4.490914,-5.6999283,2.3473768,0.041745543,0.023942016,-6.847417,3.4284968
0.227263,4.4847627,-5.6999283,2.3473768,0.041745543,0.023942016,-6.847417,3.4284968
0.22690748,4.4782777,-6.0344214,2.3164842,0.20899206,0.16759412,-7.5225816,2.9783869
0.22653796,4.471801,-6.0344214,2.3164842,0.20899206,0.16759412,-7.5225816,2.9783869
0.22631979,4.465016,-6.3294997,2.2792,0.37730384,0.30166942,-7.9822683,2.6862943
0.22608756,4.4582586,-6.3294997,2.2792,0.37730384,0.30166942,-7.9822683,2.6862943
0.2260082,4.4512033,-6.588359,2.234459,0.5434851,0.17717093,-8.480263,2.27928
0.22591366,4.444169,-6.588359,2.234459,0.5434851,0.17717093,-8.480263,2.27928
0.22597477,4.436913,-6.805673,2.1854568,0.7075358,-0.062249243,-8.839393,1.9680338
0.2260198,4.429685,-6.805673,2.1854568,0.7075358,-0.062249243,-8.839393,1.9680338
0.22621821,4.422237,-6.9857025,2.1289978,0.8705213,-0.29688102,-9.11712,1.2593501
0.22639962,4.414818,-6.9857025,2.1289978,0.8705213,-0.29688102,-9.11712,1.2593501
0.22673753,4.4072466,-7.132709,2.0672123,1.0356373,-0.50278234,-9.346964,0.6560113
0.22673753,4.4072466,-7.132709,2.0672123,1.0356373,-0.50278234,-9.346964,0.6560113
0.227059,4.3996744,-7.132709,2.0672123,1.0356373,-0.50278234,-9.346964,0.6560113
0.22800083,4.384322,-7.247758,2.0032966,1.2050143,-0.5506664,-9.5385,0.16280572
0.22861952,4.376521,-7.334044,1.9393806,1.3743913,-0.46447513,-9.600749,-0.37349546
0.22921966,4.368742,-7.334044,1.9393806,1.3743913,-0.46447513,-9.600749,-0.37349546
0.22921966,4.368742,-7.390503,1.87653,1.5437684,-0.5363012,-9.615114,-0.9672575
0.23071204,4.3530526,-7.390503,1.87653,1.5437684,-0.5363012,-9.615114,-0.9672575
0.23159677,4.3451805,-7.421396,1.8190057,1.7120802,-0.6943185,-9.682152,-1.661576
0.23159677,4.3451805,-7.421396,1.8190057,1.7120802,-0.6943185,-9.682152,-1.661576
0.23347194,4.3292665,-7.4320483,1.7646773,1.8740004,-0.8523358,-9.701305,-2.3894134
0.23347194,4.3292665,-7.4320483,1.7646773,1.8740004,-0.8523358,-9.701305,-2.3894134
0.23468328,4.3195453,-7.4320483,1.7646773,1.8740004,-0.8523358,-9.701305,-2.3894134
0.23586194,4.311222,-7.4203305,1.7135446,2.03379,-1.0582372,-9.873688,-2.920926
0.23788375,4.297536,-7.387307,1.6613466,2.1893187,-1.2114661,-10.093954,-3.4380736
0.23788375,4.297536,-7.387307,1.6613466,2.1893187,-1.2114661,-10.093954,-3.4380736
0.24034607,4.281507,-7.387307,1.6613466,2.1893187,-1.2114661,-10.093954,-3.4380736
0.24072601,4.279291,-7.334044,1.6048876,2.3341947,-1.3599066,-10.414778,-3.7732618
0.2418006,4.272979,-7.257345,1.5452328,2.4726791,-1.9967642,-10.630256,-4.3239284
0.24454193,4.2584205,-7.257345,1.5452328,2.4726791,-1.9967642,-10.630256,-4.3239284
0.24611782,4.2507358,-7.15508,1.4749253,2.601576,-2.0398598,-11.066,-4.6782703
0.24768364,4.243033,-7.15508,1.4749253,2.601576,-2.0398598,-11.066,-4.6782703
0.2493828,4.235456,-7.031509,1.3982263,2.7208858,-2.1787236,-11.573571,-4.8362875
0.2510674,4.2278733,-7.031509,1.3982263,2.7208858,-2.1787236,-11.573571,-4.8362875
0.2528754,4.2205048,-6.8813066,1.3193967,2.834869,-2.456451,-12.167333,-4.9464207
0.25469452,4.2130175,-6.8813066,1.3193967,2.834869,-2.456451,-12.167333,-4.9464207
0.25663152,4.205762,-6.7023425,1.2363061,2.94033,-2.7724855,-12.6461735,-5.0421886
0.25855723,4.198476,-6.7023425,1.2363061,2.94033,-2.7724855,-12.6461735,-5.0421886
0.26059547,4.1914597,-6.49142,1.1478891,3.037269,-3.2513258,-12.995727,-5.3007627
0.2626281,4.184392,-6.49142,1.1478891,3.037269,-3.2513258,-12.995727,-5.3007627
0.26477206,4.1775823,-6.2496047,1.0488195,3.1224904,-3.5482068,-13.359646,-5.482722
0.2668962,4.1707697,-6.2496047,1.0488195,3.1224904,-3.5482068,-13.359646,-5.482722
0.26913106,4.1642103,-5.975832,0.9390973,3.1959937,-3.6391866,-13.623008,-5.693412
0.27134255,4.1576595,-5.975832,0.9390973,3.1959937,-3.6391866,-13.623008,-5.693412
0.27363628,4.1514306,-5.6764927,0.8197877,3.2524526,-3.5242648,-13.8480625,-5.8226986
0.27363628,4.1514306,-5.6764927,0.8197877,3.2524526,-3.5242648,-13.8480625,-5.8226986
0.27594885,4.1450977,-5.6764927,0.8197877,3.2524526,-3.5242648,-13.8480625,-5.8226986
0.27953127,4.1361246,-5.3494563,0.69302124,3.2886715,-3.5482068,-16.697163,-5.3582234
0.28310856,4.1277742,-4.9617,0.56838524,3.30252,-4.76925,-14.216769,-6.363788
0.28310856,4.1277742,-4.9617,0.56838524,3.30252,-4.76925,-14.216769,-6.363788
0.28799987,4.117174,-4.51642,0.4213788,3.2918675,-2.5761611,-14.982914,-5.631162
0.2904374,4.112096,-4.51642,0.4213788,3.2918675,-2.5761611,-14.982914,-5.631162
0.29293135,4.1074877,-4.0977707,0.2647849,3.2407348,-3.490746,-17.501614,-4.1180267
0.2954255,4.1028523,-4.0977707,0.2647849,3.2407348,-3.490746,-17.501614,-4.1180267
0.29796055,4.098709,-3.6343806,0.19234692,3.2226253,-5.650316,-16.711529,-5.592855
0.30048633,4.094557,-3.6343806,0.19234692,3.2226253,-5.650316,-16.711529,-5.592855
0.30304337,4.0909767,-3.1028137,0.028296193,3.1501873,-5.45878,-16.069881,-6.2871737
0.30304337,4.0909767,-3.1028137,0.028296193,3.1501873,-5.45878,-16.069881,-6.2871737
0.30814016,4.084402,-2.5595288,-0.17943038,3.0383344,-4.975151,-15.811308,-6.7612257
0.31069794,4.0814166,-2.5595288,-0.17943038,3.0383344,-4.975151,-15.811308,-6.7612257
0.31324288,4.079044,-2.0183744,-0.37117797,2.9136984,-4.4723687,-13.843274,-7.747637
0.3157297,4.076715,-2.0183744,-0.37117797,2.9136984,-4.4723687,-13.843274,-7.747637
0.31815058,4.0748777,-1.509178,-0.5586645,2.7539089,-3.2609026,-12.076353,-8.101978
0.31815058,4.0748777,-1.509178,-0.5586645,2.7539089,-3.2609026,-12.076353,-8.101978
0.3229699,4.071571,-1.0585712,-0.70886683,2.5685527,-2.96881,-10.764331,-8.389283
0.32531384,4.070163,-1.0585712,-0.70886683,2.5685527,-2.96881,-10.764331,-8.389283
0.3275743,4.069192,-0.6644234,-0.8249806,2.3618915,-2.4708161,-10.031705,-8.422802
0.32984212,4.068216,-0.6644234,-0.8249806,2.3618915,-2.4708161,-10.031705,-8.422802
0.32984212,4.068216,-0.32034296,-0.9197892,2.1307292,-2.054225,-9.323022,-8.690952
0.3341371,4.067055,-0.32034296,-0.9197892,2.1307292,-2.054225,-9.323022,-8.690952
0.33614165,4.0668297,-0.014612063,-0.9900966,1.880392,-1.8818425,-8.264784,-8.848969
0.33815154,4.066603,-0.014612063,-0.9900966,1.880392,-1.8818425,-8.264784,-8.848969
0.33815154,4.066603,0.2559651,-1.0433599,1.6098148,-1.4939818,-7.536947,-8.959103
0.34180343,4.0668216,0.2559651,-1.0433599,1.6098148,-1.4939818,-7.536947,-8.959103
0.34343186,4.067237,0.49351907,-1.076383,1.3232586,-1.2114661,-6.9862804,-8.983045
0.3450518,4.067651,0.49351907,-1.076383,1.3232586,-1.2114661,-6.9862804,-8.983045
0.3464453,4.0683403,0.7001804,-1.092362,1.0260499,-0.842759,-6.6079965,-9.064447
0.34783283,4.0690284,0.7001804,-1.092362,1.0260499,-0.842759,-6.6079965,-9.064447
0.34898242,4.0699663,0.8823406,-1.092362,0.72458005,-0.63206923,-6.3111157,-9.002198
0.35013157,4.0709047,0.8823406,-1.092362,0.72458005,-0.63206923,-6.3111157,-9.002198
0.35103372,4.0720634,1.0389345,-1.0817094,0.42417547,-0.63206923,-6.26802,-9.006987
0.35193512,4.073222,1.0389345,-1.0817094,0.42417547,-0.63206923,-6.26802,-9.006987
0.35259384,4.0745783,1.1774188,-1.0625346,0.13335828,-0.8523358,-6.315904,-8.925584
0.3532516,4.0759344,1.1774188,-1.0625346,0.13335828,-0.8523358,-6.315904,-8.925584
0.35367313,4.0774736,1.30312,-1.0444251,-0.145741,-0.9768343,-6.459556,-8.882488
0.35409352,4.079014,1.30312,-1.0444251,-0.145741,-0.9768343,-6.459556,-8.882488
0.3542915,4.080731,1.4266907,-1.0295115,-0.4099266,-1.1061212,-6.579266,-8.858546
0.35448784,4.082449,1.4266907,-1.0295115,-0.4099266,-1.1061212,-6.579266,-8.858546
0.35447896,4.0843396,1.5481309,-1.0188588,-0.65387213,-1.340753,-6.83784,-8.7053175
0.35446823,4.0862303,1.5481309,-1.0188588,-0.65387213,-1.340753,-6.83784,-8.7053175
0.35427174,4.0882907,1.6706363,-1.0114019,-0.87331665,-1.5849615,-7.1634517,-8.513782
0.3540699,4.090382,1.6706363,-1.0114019,-0.87331665,-1.5849615,-7.1634517,-8.513782
0.35371256,4.092581,1.794207,-1.0092714,-1.0661294,-1.8291701,-7.551312,-8.327033
0.35371256,4.092581,1.794207,-1.0092714,-1.0661294,-1.8291701,-7.551312,-8.327033
0.35284016,4.0972047,1.9241693,-1.0135324,-1.2323108,-1.982399,-8.001422,-8.0684595
0.35232943,4.0995975,1.9241693,-1.0135324,-1.2323108,-1.982399,-8.001422,-8.0684595
0.35170296,4.102167,2.060523,-1.0209893,-1.3707951,-2.2984335,-8.355764,-7.905654
0.35107338,4.104734,2.060523,-1.0209893,-1.3707951,-2.2984335,-8.355764,-7.905654
0.3503616,4.107464,2.2022033,-1.0327072,-1.4773216,-2.6144683,-8.63828,-7.833828
0.3496494,4.1101794,2.2022033,-1.0327072,-1.4773216,-2.6144683,-8.63828,-7.833828
0.34886485,4.1130786,2.3481445,-1.0518819,-1.5582817,-2.7006595,-8.978256,-7.6614456
0.34809053,4.115924,2.3481445,-1.0518819,-1.5582817,-2.7006595,-8.978256,-7.6614456
0.347297,4.1188245,2.3481445,-1.0518819,-1.5582817,-2.7006595,-8.978256,-7.6614456
0.34644282,4.121956,2.4983468,-1.076383,-1.6147407,-2.8203697,-9.23683,-7.517793
0.34558034,4.1252017,2.6506796,-1.1062105,-1.6466986,-2.9352913,-9.485827,-7.3166804
0.34471518,4.128439,2.6506796,-1.1062105,-1.6466986,-2.9352913,-9.485827,-7.3166804
0.3438654,4.1318073,2.8051429,-1.140299,-1.6594818,-3.074155,-9.528923,-7.3406224
0.3429999,4.1352186,2.8051429,-1.140299,-1.6594818,-3.074155,-9.528923,-7.3406224
0.34216118,4.138775,2.9606717,-1.1775832,-1.656286,-3.2609026,-9.624691,-7.3310456
0.34132013,4.1423197,2.9606717,-1.1775832,-1.656286,-3.2609026,-9.624691,-7.3310456
0.34050995,4.146028,3.1162002,-1.2223243,-1.6403071,-3.3183637,-9.701305,-7.2592196
0.33969584,4.149731,3.1162002,-1.2223243,-1.6403071,-3.3183637,-9.701305,-7.2592196
0.33969584,4.149731,3.2717288,-1.2702612,-1.6104796,-3.3806129,-9.725247,-7.120356
0.3381483,4.1574717,3.2717288,-1.2702612,-1.6104796,-3.3806129,-9.725247,-7.120356
0.3374273,4.161467,3.4272573,-1.3203286,-1.5710648,-3.3039982,-9.710882,-7.0245876
0.3366916,4.165514,3.4272573,-1.3203286,-1.5710648,-3.3039982,-9.710882,-7.0245876
0.3360122,4.1696773,3.5795903,-1.3693308,-1.5252584,-3.1651347,-9.65821,-6.8665705
0.3353262,4.1738486,3.5795903,-1.3693308,-1.5252584,-3.1651347,-9.65821,-6.8665705
0.33471733,4.1781654,3.727662,-1.410876,-1.4741257,-3.4380736,-9.5385,-6.71813
0.33471733,4.1781654,3.727662,-1.410876,-1.4741257,-3.4380736,-9.5385,-6.71813
0.3335525,4.186917,3.8672116,-1.4502909,-1.4197973,-3.3997664,-9.404425,-6.6175733
0.3329969,4.191347,3.8672116,-1.4502909,-1.4197973,-3.3997664,-9.404425,-6.6175733
0.3324696,4.195941,3.9993043,-1.4875752,-1.3633382,-2.9161377,-9.323022,-6.50744
0.33193693,4.200526,3.9993043,-1.4875752,-1.3633382,-2.9161377,-9.323022,-6.50744
0.33145157,4.205234,4.1196795,-1.5184678,-1.3068793,-2.6910827,-9.26556,-6.4547677
0.3309598,4.209938,4.1196795,-1.5184678,-1.3068793,-2.6910827,-9.26556,-6.4547677
0.3305204,4.214744,4.2283363,-1.5397731,-1.2546813,-2.7724855,-9.222465,-6.373365
0.33007413,4.219547,4.2283363,-1.5397731,-1.2546813,-2.7724855,-9.222465,-6.373365
0.32967442,4.224436,4.32421,-1.5525563,-1.2067444,-2.815581,-9.150639,-6.3925185
0.32926762,4.2293224,4.32421,-1.5525563,-1.2067444,-2.815581,-9.150639,-6.3925185
0.32888943,4.234291,4.4094315,-1.5642742,-1.1662643,-2.743755,-9.184157,-6.3589997
0.32850435,4.2392526,4.4094315,-1.5642742,-1.1662643,-2.743755,-9.184157,-6.3589997
0.32814842,4.2442904,4.480804,-1.5738616,-1.1279148,-2.719813,-9.155427,-6.315904
0.32778564,4.2493153,4.480804,-1.5738616,-1.1279148,-2.719813,-9.155427,-6.315904
0.32743987,4.2544117,4.5436544,-1.5802531,-1.0959569,-2.6144683,-9.121908,-6.220136
0.32708734,4.259495,4.5436544,-1.5802531,-1.0959569,-2.6144683,-9.121908,-6.220136
0.32673535,4.264644,4.594787,-1.5845141,-1.0693253,-2.4181437,-9.126697,-5.884948
0.32637662,4.26978,4.594787,-1.5845141,-1.0693253,-2.4181437,-9.126697,-5.884948
0.32601938,4.274965,4.6352673,-1.58771,-1.04802,-2.2936451,-9.088389,-5.6359506
0.32565486,4.280146,4.6352673,-1.58771,-1.04802,-2.2936451,-9.088389,-5.6359506
0.32528272,4.28533,4.6352673,-1.58771,-1.04802,-2.2936451,-9.088389,-5.6359506
0.32491127,4.2904477,4.6682906,-1.5834489,-1.0352368,-2.2649148,-8.983045,-5.2863975
0.32452634,4.2956514,4.6682906,-1.5834489,-1.0352368,-2.2649148,-8.983045,-5.2863975
0.32452634,4.2956514,4.6895957,-1.571731,-1.0245842,-2.15957,-8.992621,-4.9416323
0.3240986,4.301175,4.6895957,-1.571731,-1.0245842,-2.15957,-8.992621,-4.9416323
0.3232522,4.3115034,4.7045093,-1.5525563,-1.0171273,-1.9919758,-9.006987,-4.4436383
0.3232522,4.3115034,4.7045093,-1.5525563,-1.0171273,-1.9919758,-9.006987,-4.4436383
0.32279444,4.3168,4.7045093,-1.5525563,-1.0171273,-1.9919758,-9.006987,-4.4436383
0.322242,4.3227606,4.7109013,-1.5237942,-1.0149968,-1.8291701,-8.90643,-3.9935284
0.32178125,4.327489,4.7087708,-1.4854445,-1.011801,-1.5658079,-8.7053175,-3.5817258
0.32074025,4.337895,4.7087708,-1.4854445,-1.011801,-1.5658079,-8.7053175,-3.5817258
0.32018697,4.343143,4.695987,-1.4353771,-1.00754,-1.3120226,-8.475474,-3.1794999
0.31961977,4.3484263,4.695987,-1.4353771,-1.00754,-1.3120226,-8.475474,-3.1794999
0.319026,4.3536754,4.6682906,-1.3746572,-1.011801,-0.9528923,-8.202535,-2.6862943
0.31842166,4.358924,4.6682906,-1.3746572,-1.011801,-0.9528923,-8.202535,-2.6862943
0.31778982,4.364103,4.622484,-1.3064802,-1.0213884,-0.7422025,-7.967903,-2.2122424
0.31714758,4.3692827,4.622484,-1.3064802,-1.0213884,-0.7422025,-7.967903,-2.2122424
0.31647238,4.3744016,4.5585685,-1.2340422,-1.0363021,-0.5746084,-7.776367,-1.7142484
0.31578857,4.379512,4.5585685,-1.2340422,-1.0363021,-0.5746084,-7.776367,-1.7142484
0.3150662,4.384523,4.473347,-1.1584084,-1.0565422,-0.39264908,-7.589619,-1.2497733
0.3143354,4.3895307,4.473347,-1.1584084,-1.0565422,-0.39264908,-7.589619,-1.2497733
0.31356686,4.394415,4.3657556,-1.0774484,-1.079978,-0.23463176,-7.398083,-0.63206923
0.3127906,4.399296,4.3657556,-1.0774484,-1.079978,-0.23463176,-7.398083,-0.63206923
0.31196532,4.4040284,4.238989,-0.99542296,-1.1066096,-0.05746084,-7.321469,-0.21547815
0.31113315,4.408757,4.238989,-0.99542296,-1.1066096,-0.05746084,-7.321469,-0.21547815
0.31025296,4.413327,4.094113,-0.9102018,-1.1321759,0.02873042,-7.1251445,0.22984336
0.31025296,4.413327,4.094113,-0.9102018,-1.1321759,0.02873042,-7.1251445,0.22984336
0.30935854,4.417936,3.9311275,-0.82391536,-1.1545465,0.20111294,-7.029376,0.6895301
0.30750307,4.426628,3.9311275,-0.82391536,-1.1545465,0.20111294,-7.029376,0.6895301
0.30750307,4.426628,3.7500324,-0.7365637,-1.176917,0.38307226,-6.9719152,1.0247183
0.3054727,4.435195,3.7500324,-0.7365637,-1.176917,0.38307226,-6.9719152,1.0247183
0.3054727,4.435195,3.7500324,-0.7365637,-1.176917,0.38307226,-6.9719152,1.0247183
0.30444118,4.439113,3.554024,-0.64814675,-1.1982223,0.7038953,-6.799533,1.4173675
0.30340555,4.4430294,3.554024,-0.64814675,-1.1982223,0.7038953,-6.799533,1.4173675
0.3023253,4.446685,3.3420362,-0.55759925,-1.2195276,1.1252748,-6.646304,1.6424223
0.30124384,4.4503307,3.3420362,-0.55759925,-1.2195276,1.1252748,-6.646304,1.6424223
0.299614,4.45524,3.1172655,-0.46279073,-1.2365718,1.484405,-6.459556,1.8866309
0.2978308,4.4602113,2.8797114,-0.36372113,-1.2557466,1.6328455,-6.2345014,2.087744
0.2966456,4.4633617,2.8797114,-0.36372113,-1.2557466,1.6328455,-6.2345014,2.087744
0.29541716,4.466236,2.6304395,-0.26145574,-1.2749213,1.5945383,-6.0860605,2.2936451
0.2941881,4.469106,2.6304395,-0.26145574,-1.2749213,1.5945383,-6.0860605,2.2936451
0.2929235,4.471694,2.3737109,-0.15919036,-1.2909003,1.2737153,-5.884948,2.5187001
0.2916564,4.4742827,2.3737109,-0.15919036,-1.2909003,1.2737153,-5.884948,2.5187001
0.2903628,4.476577,2.1116557,-0.06331655,-1.3004876,1.1540052,-5.717354,2.6862943
0.28906563,4.4788737,2.1116557,-0.06331655,-1.3004876,1.1540052,-5.717354,2.6862943
0.28775004,4.4808836,1.8464049,0.022969872,-1.2994224,1.0773908,-5.60722,2.9017725
0.28643766,4.4828863,1.8464049,0.022969872,-1.2994224,1.0773908,-5.60722,2.9017725
0.28512102,4.4845953,1.5790236,0.100734174,-1.2877045,1.1348516,-5.535394,3.0550013
0.28380525,4.4863014,1.5790236,0.100734174,-1.2877045,1.1348516,-5.535394,3.0550013
0.28249478,4.4877243,1.3148379,0.16997637,-1.2642686,1.2210429,-5.482722,3.2130187
0.28118402,4.489146,1.3148379,0.16997637,-1.2642686,1.2210429,-5.482722,3.2130187
0.27989078,4.490282,1.0495871,0.23389223,-1.2301803,1.3359646,-5.5018754,3.217807
0.27859753,4.4914174,1.0495871,0.23389223,-1.2301803,1.3359646,-5.5018754,3.217807
0.27733216,4.492265,0.783271,0.29248178,-1.1865044,1.5035586,-5.4539914,3.2082303
0.27606782,4.4931126,0.783271,0.29248178,-1.1865044,1.5035586,-5.4539914,3.2082303
0.27483913,4.4936757,0.51802015,0.3489408,-1.1332412,1.6519991,-5.434838,3.193865
0.27483913,4.4936757,0.51802015,0.3489408,-1.1332412,1.6519991,-5.434838,3.193865
0.27359825,4.4942446,0.51802015,0.3489408,-1.1332412,1.6519991,-5.434838,3.193865
0.27235383,4.494536,0.25063878,0.3990082,-1.0778474,1.757344,-5.4204726,3.1986535
0.27010483,4.4947987,-0.018873122,0.44587985,-1.0107358,1.7812861,-5.401319,3.2321723
0.27010483,4.4947987,-0.018873122,0.44587985,-1.0107358,1.7812861,-5.401319,3.2321723
0.26894045,4.49479,-0.018873122,0.44587985,-1.0107358,1.7812861,-5.401319,3.2321723
0.26787794,4.494499,-0.2862545,0.49062097,-0.93616724,1.7381904,-5.391742,3.241749
0.26585066,4.4936457,-0.55257064,0.531101,-0.8530766,1.6519991,-5.415684,3.169923
0.2648593,4.4930754,-0.55257064,0.531101,-0.8530766,1.6519991,-5.415684,3.169923
0.2639527,4.492227,-0.81569093,0.5705158,-0.7572028,1.5897499,-5.497087,3.1364043
0.26304138,4.491375,-0.81569093,0.5705158,-0.7572028,1.5897499,-5.497087,3.1364043
0.26222715,4.490256,-1.0734849,0.60780007,-0.6517416,1.6280571,-5.5880666,2.9783869
0.2614084,4.4891315,-1.0734849,0.60780007,-0.6517416,1.6280571,-5.5880666,2.9783869
0.26069114,4.487738,-1.3270179,0.6461496,-0.53669304,1.6280571,-5.626374,2.7629087
0.25997478,4.486348,-1.3270179,0.6461496,-0.53669304,1.6280571,-5.626374,2.7629087
0.259363,4.4846897,-1.5762898,0.6823686,-0.41525292,1.6232687,-5.755661,2.5091233
0.259363,4.4846897,-1.5762898,0.6823686,-0.41525292,1.6232687,-5.755661,2.5091233
0.2587506,4.4830317,-1.5762898,0.6823686,-0.41525292,1.6232687,-5.755661,2.5091233
0.25775018,4.4791994,-1.8223659,0.7175223,-0.28848645,1.6041151,-5.865794,2.303222
0.2573686,4.477026,-2.0641809,0.75161076,-0.15958944,1.3263878,-6.0046577,2.2936451
0.25698528,4.4748507,-2.0641809,0.75161076,-0.15958944,1.3263878,-6.0046577,2.2936451
0.25672457,4.4724317,-2.2985392,0.7825034,-0.02323559,1.1348516,-6.26802,2.0159178
0.25646207,4.47001,-2.2985392,0.7825034,-0.02323559,1.1348516,-6.26802,2.0159178
0.25631547,4.467346,-2.5243752,0.8133961,0.11737932,1.2641385,-6.3829417,1.4413095
0.25616652,4.464674,-2.5243752,0.8133961,0.11737932,1.2641385,-6.3829417,1.4413095
0.25614202,4.461771,-2.7438197,0.8496151,0.26438582,1.292869,-6.588843,1.091756
0.2561153,4.4588556,-2.7438197,0.8496151,0.26438582,1.292869,-6.588843,1.091756
0.2562122,4.4557214,-2.9579377,0.8900951,0.4113923,1.0630256,-6.799533,0.6751649
0.25630724,4.452571,-2.9579377,0.8900951,0.4113923,1.0630256,-6.799533,0.6751649
0.2565268,4.4492097,-3.1635337,0.9327057,0.5562683,0.6607997,-7.0964136,0.35913026
0.2567438,4.4458447,-3.1635337,0.9327057,0.5562683,0.6607997,-7.0964136,0.35913026
0.25708047,4.442266,-3.3563466,0.9710552,0.6990137,0.48841715,-7.326257,0.062249243
0.25741345,4.4386907,-3.3563466,0.9710552,0.6990137,0.48841715,-7.326257,0.062249243
0.25786343,4.4349074,-3.5342457,1.0094048,0.84175915,0.30645782,-7.603985,-0.320823
0.2583092,4.431127,-3.5342457,1.0094048,0.84175915,0.30645782,-7.603985,-0.320823
0.25886777,4.427155,-3.6972313,1.0488195,0.98876566,0.25857377,-7.9104424,-0.79008657
0.2594223,4.423182,-3.6972313,1.0488195,0.98876566,0.25857377,-7.9104424,-0.79008657
0.26008093,4.4190416,-3.8442378,1.0924954,1.1315111,0.17238252,-8.269572,-1.2785037
0.2607382,4.41488,-3.8442378,1.0924954,1.1315111,0.17238252,-8.269572,-1.2785037
0.26149592,4.4105525,-3.9742,1.1372365,1.2689302,-0.05746084,-8.513782,-1.7717092
0.26224625,4.406237,-3.9742,1.1372365,1.2689302,-0.05746084,-8.513782,-1.7717092
0.2630952,4.4017653,-4.0892487,1.1819776,1.4031535,-0.30166942,-8.767567,-2.2170308
0.26393762,4.3972974,-4.0892487,1.1819776,1.4031535,-0.30166942,-8.767567,-2.2170308
0.2648774,4.392701,-4.1893835,1.2245882,1.5331157,-0.45968673,-9.102755,-2.5234885
0.2658156,4.388082,-4.1893835,1.2245882,1.5331157,-0.45968673,-9.102755,-2.5234885
0.2668424,4.383368,-4.2724743,1.2629377,1.6556212,-0.90021986,-9.380483,-2.8299465
0.26786435,4.378645,-4.2724743,1.2629377,1.6556212,-0.90021986,-9.380483,-2.8299465
0.26897004,4.373843,-4.3385205,1.3002219,1.7738656,-1.1300632,-9.672575,-3.098097
0.27007487,4.369014,-4.3385205,1.3002219,1.7738656,-1.1300632,-9.672575,-3.098097
0.2712607,4.36413,-4.3875227,1.3364409,1.8878489,-1.412579,-9.974244,-3.2944214
0.2712607,4.36413,-4.3875227,1.3364409,1.8878489,-1.412579,-9.974244,-3.2944214
0.27244493,4.3592215,-4.419481,1.3673337,1.9943753,-1.541866,-10.25676,-3.5051112
0.27496693,4.3492675,-4.419481,1.3673337,1.9943753,-1.541866,-10.25676,-3.5051112
0.27496693,4.3492675,-4.419481,1.3673337,1.9943753,-1.541866,-10.25676,-3.5051112
0.27634218,4.3440924,-4.4343944,1.3929,2.0934448,-1.7046716,-10.472239,-3.6296098
0.27819005,4.337082,-4.4343944,1.4120747,2.1797314,-1.7908629,-10.6637745,-3.7588966
0.28031155,4.329357,-4.4343944,1.4120747,2.1797314,-1.7908629,-10.6637745,-3.7588966
0.28172547,4.3243914,-4.4173503,1.4205968,2.2532346,-1.9728222,-10.773908,-3.9217024
0.28313538,4.31941,-4.4173503,1.4205968,2.2532346,-1.9728222,-10.773908,-3.9217024
0.2846072,4.314411,-4.3864574,1.4216621,2.3171504,-2.1787236,-10.836157,-4.012682
0.28606692,4.3094254,-4.3864574,1.4216621,2.3171504,-2.1787236,-10.836157,-4.012682
0.28756353,4.3044825,-4.3417163,1.4131399,2.3661525,-2.2649148,-10.912771,-4.1036615
0.28904793,4.299552,-4.3417163,1.4131399,2.3661525,-2.2649148,-10.912771,-4.1036615
0.29056665,4.2946434,-4.284192,1.3960958,2.399176,-2.2984335,-10.94629,-4.189853
0.29207158,4.289752,-4.284192,1.3960958,2.399176,-2.2984335,-10.94629,-4.189853
0.29359207,4.284916,-4.21708,1.3705294,2.420481,-2.207454,-11.085154,-4.31914
0.2951045,4.2800765,-4.21708,1.3705294,2.420481,-2.207454,-11.085154,-4.31914
0.2951045,4.2800765,-4.1403813,1.3396367,2.427938,-2.207454,-11.228806,-4.280833
0.298153,4.270564,-4.1403813,1.3396367,2.427938,-2.207454,-11.228806,-4.280833
0.29969108,4.265891,-4.0519643,1.3023524,2.4194157,-2.3175871,-11.477803,-4.185065
0.30120248,4.26127,-4.0519643,1.3023524,2.4194157,-2.3175871,-11.477803,-4.185065
0.302732,4.2567234,-3.9518294,1.2608072,2.3981106,-2.4995465,-11.841722,-4.0892963
0.3042544,4.2521667,-3.9518294,1.2608072,2.3981106,-2.4995465,-11.841722,-4.0892963
0.30576527,4.247757,-3.8399768,1.2139355,2.3661525,-2.7820623,-12.162544,-4.132392
0.30727056,4.243333,-3.8399768,1.2139355,2.3661525,-2.7820623,-12.162544,-4.132392
0.30876905,4.2390666,-3.712145,1.155346,2.323542,-3.217807,-12.521675,-4.2042184
0.31026486,4.2347784,-3.712145,1.155346,2.323542,-3.217807,-12.521675,-4.2042184
0.31174275,4.230674,-3.5651386,1.0818428,2.271344,-3.4476504,-12.86644,-4.2521024
0.3132199,4.226544,-3.5651386,1.0818428,2.271344,-3.4476504,-12.86644,-4.2521024
0.31467563,4.22264,-3.3946962,0.98809946,2.2116892,-3.667917,-13.13459,-4.4244847
0.31612247,4.2187357,-3.3946962,0.98809946,2.2116892,-3.667917,-13.13459,-4.4244847
0.31756046,4.215049,-3.2029486,0.8762467,2.1435122,-3.7780502,-13.402741,-4.5441947
0.3189975,4.211343,-3.2029486,0.8762467,2.1435122,-3.7780502,-13.402741,-4.5441947
0.32040858,4.207922,-2.9845693,0.7462844,2.0646827,-3.763685,-13.589489,-4.7165775
0.32181963,4.204484,-2.9845693,0.7462844,2.0646827,-3.763685,-13.589489,-4.7165775
0.32321224,4.20135,-2.737428,0.60460424,1.977331,-3.7301662,-13.67568,-4.8027687
0.32460007,4.1982126,-2.737428,0.60460424,1.977331,-3.7301662,-13.67568,-4.8027687
0.32596684,4.19541,-2.4647202,0.45333672,1.880392,-3.643975,-13.790602,-4.8602295
0.32596684,4.19541,-2.4647202,0.45333672,1.880392,-3.643975,-13.790602,-4.8602295
0.32734075,4.192581,-2.165381,0.29354703,1.7738656,-3.5003228,-13.828909,-4.841076
0.3286888,4.1901245,-2.165381,0.29354703,1.7738656,-3.5003228,-13.828909,-4.841076
0.3313356,4.1856256,-1.8394101,0.13162684,1.6588169,-3.3758245,-13.694834,-4.8745947
0.33265617,4.1835504,-1.8394101,0.13162684,1.6588169,-3.3758245,-13.694834,-4.8745947
0.33393332,4.1819005,-1.4942644,-0.030293351,1.5331157,-3.2609026,-13.599066,-4.9943047
0.3352168,4.1802387,-1.4942644,-0.030293351,1.5331157,-3.2609026,-13.599066,-4.9943047
0.33645308,4.1790147,-1.1320745,-0.19008303,1.3967619,-3.2225955,-13.488933,-5.133168
0.3376911,4.177787,-1.1320745,-0.19008303,1.3967619,-3.2225955,-13.488933,-5.133168
0.3388768,4.177006,-0.76136243,-0.34987268,1.251886,-3.2465374,-13.311762,-5.281609
0.3400691,4.1762195,-0.76136243,-0.34987268,1.251886,-3.2465374,-13.311762,-5.281609
0.3412036,4.1758842,-0.3853241,-0.50433606,1.1038142,-3.289633,-13.144167,-5.415684
0.34234217,4.1755476,-0.3853241,-0.50433606,1.1038142,-3.289633,-13.144167,-5.415684
0.34341604,4.1756577,-0.0114162695,-0.65666884,0.9514814,-3.347094,-13.048399,-5.60722
0.34449804,4.1757684,-0.0114162695,-0.65666884,0.9514814,-3.347094,-13.048399,-5.60722
0.34551126,4.1763186,0.35609996,-0.8068711,0.7959528,-3.4284968,-12.928689,-5.8226986
0.34652457,4.1768694,0.35609996,-0.8068711,0.7959528,-3.4284968,-12.928689,-5.8226986
0.34746936,4.1778483,0.71402884,-0.9549429,0.6393589,-3.5194764,-12.880805,-6.0238113
0.34841824,4.1788335,0.71402884,-0.9549429,0.6393589,-3.5194764,-12.880805,-6.0238113
0.34928536,4.1802273,1.061305,-1.1019495,0.47850397,-3.4715924,-12.808979,-6.220136
0.35015625,4.1816306,1.061305,-1.1019495,0.47850397,-3.4715924,-12.808979,-6.220136
0.35094383,4.183428,1.3989938,-1.2478906,0.31658378,-3.5003228,-12.737153,-6.397307
0.35173705,4.1852455,1.3989938,-1.2478906,0.31658378,-3.5003228,-12.737153,-6.397307
0.3524424,4.1874394,1.7281606,-1.3906361,0.15146779,-3.5242648,-12.65575,-6.4978633
0.35314643,4.189642,1.7281606,-1.3906361,0.15146779,-3.5242648,-12.65575,-6.4978633
0.35377207,4.1922297,2.04774,-1.5301857,-0.01151768,-3.5194764,-12.65575,-6.50744
0.35439637,4.194832,2.04774,-1.5301857,-0.01151768,-3.5194764,-12.65575,-6.50744
0.35493943,4.197814,2.363058,-1.6654743,-0.17450315,-3.6727054,-12.641385,-6.517017
0.35546792,4.2007494,2.363058,-1.6654743,-0.17450315,-3.6727054,-12.641385,-6.517017
0.355925,4.2041106,2.6751807,-1.7986324,-0.33642334,-3.763685,-12.612655,-6.421249
0.356386,4.207561,2.6751807,-1.7986324,-0.33642334,-3.763685,-12.612655,-6.421249
0.35674667,4.211293,2.9851727,-1.9296598,-0.49621302,-3.9360676,-12.545617,-6.5361705
0.3570985,4.2150254,2.9851727,-1.9296598,-0.49621302,-3.9360676,-12.545617,-6.5361705
0.35736555,4.219089,3.2898383,-2.0585568,-0.6528069,-4.1659107,-12.35887,-6.8186865
0.3576279,4.2231708,3.2898383,-2.0585568,-0.6528069,-4.1659107,-12.35887,-6.8186865
0.35825816,4.2366276,3.8757336,-2.2875888,-0.9425588,-4.76925,-12.042834,-7.503428
0.35825816,4.2366276,3.8757336,-2.2875888,-0.9425588,-4.76925,-12.042834,-7.503428
0.35825816,4.2366276,3.8757336,-2.2875888,-0.9425588,-4.76925,-12.042834,-7.503428
0.35825816,4.2366276,3.8757336,-2.2875888,-0.9425588,-4.76925,-12.042834,-7.503428
0.35842124,4.2413626,4.146311,-2.3962457,-1.0735863,-4.817134,-11.827356,-7.819463
0.35852498,4.246806,4.146311,-2.3962457,-1.0735863,-4.817134,-11.827356,-7.819463
0.35852498,4.246806,4.146311,-2.3962457,-1.0735863,-4.817134,-11.827356,-7.819463
0.35852498,4.246806,4.146311,-2.3962457,-1.0735863,-4.817134,-11.827356,-7.819463
0.35870674,4.2662954,4.6352673,-2.5816016,-1.3079445,-4.462792,-11.439496,-8.2169
0.3585987,4.272137,4.6352673,-2.5816016,-1.3079445,-4.462792,-11.439496,-8.2169
0.35840812,4.277993,4.84832,-2.6572354,-1.4166015,-4.237737,-11.257536,-8.307879
0.3582009,4.283853,4.84832,-2.6572354,-1.4166015,-4.237737,-11.257536,-8.307879
0.3579006,4.28994,5.0400677,-2.7136946,-1.5199322,-3.9839516,-11.070788,-8.307879
0.3575833,4.296012,5.0400677,-2.7136946,-1.5199322,-3.9839516,-11.070788,-8.307879
0.35716528,4.302313,5.2115755,-2.7499135,-1.6179365,-3.715801,-10.893618,-8.236053
0.35673118,4.308573,5.2115755,-2.7499135,-1.6179365,-3.715801,-10.893618,-8.236053
0.35673118,4.308573,5.3596473,-2.7669578,-1.7116797,-3.5817258,-10.649409,-8.073248
0.35563898,4.321482,5.3596473,-2.7669578,-1.7116797,-3.5817258,-10.649409,-8.073248
0.35498258,4.328037,5.485348,-2.7669578,-1.801162,-3.4284968,-10.376471,-7.9822683
0.35430276,4.3346195,5.485348,-2.7669578,-1.801162,-3.4284968,-10.376471,-7.9822683
0.3535184,4.341297,5.5908093,-2.7531092,-1.8885137,-3.3806129,-10.151415,-7.785944
0.35271347,4.34797,5.5908093,-2.7531092,-1.8885137,-3.3806129,-10.151415,-7.785944
0.35180578,4.354725,5.6760306,-2.7296734,-1.9684085,-3.3375173,-9.883265,-7.465121
0.3508783,4.3614664,5.6760306,-2.7296734,-1.9684085,-3.3375173,-9.883265,-7.465121
0.34984377,4.368275,5.742077,-2.6987808,-2.0451076,-3.2082303,-9.720459,-7.153875
0.34878844,4.3750777,5.742077,-2.6987808,-2.0451076,-3.2082303,-9.720459,-7.153875
0.34763062,4.381904,5.790014,-2.6614966,-2.1175456,-3.0933087,-9.605537,-6.7564373
0.34644514,4.3887644,5.790014,-2.6614966,-2.1175456,-3.0933087,-9.605537,-6.7564373
0.34516567,4.3956137,5.8209066,-2.6156902,-2.1825266,-3.0214825,-9.466674,-6.4260373
0.34516567,4.3956137,5.8209066,-2.6156902,-2.1825266,-3.0214825,-9.466674,-6.4260373
0.3438334,4.402625,5.8209066,-2.6156902,-2.1825266,-3.0214825,-9.466674,-6.4260373
0.34242162,4.4095483,5.839016,-2.5645576,-2.2389855,-2.8491,-9.323022,-6.0764837
0.33956176,4.4229302,5.8454075,-2.507033,-2.2911837,-2.7581203,-9.074024,-5.755661
0.3380421,4.429731,5.8454075,-2.507033,-2.2911837,-2.7581203,-9.074024,-5.755661
0.33644685,4.4365053,5.839016,-2.4420521,-2.3327289,-2.825158,-8.887277,-5.415684
0.33483303,4.4432697,5.839016,-2.4420521,-2.3327289,-2.825158,-8.887277,-5.415684
0.33314964,4.4500117,5.8198414,-2.37281,-2.3678827,-2.96881,-8.623915,-5.1140146
0.3314579,4.456704,5.8198414,-2.37281,-2.3678827,-2.96881,-8.623915,-5.1140146
0.32968584,4.4633145,5.7878833,-2.304633,-2.3955796,-2.3463178,-8.485051,-4.4723687
0.32787716,4.469987,5.7878833,-2.304633,-2.3955796,-2.3463178,-8.485051,-4.4723687
0.32599664,4.476555,5.7442074,-2.2343254,-2.4136891,-1.733402,-8.408437,-3.9552212
0.32409692,4.483125,5.7442074,-2.2343254,-2.4136891,-1.733402,-8.408437,-3.9552212
0.3221409,4.4895973,5.6888137,-2.155496,-2.4275374,-1.4460979,-8.259995,-3.7301662
0.3201644,4.4960775,5.6888137,-2.155496,-2.4275374,-1.4460979,-8.259995,-3.7301662
0.31814077,4.5024524,5.6195717,-2.0681443,-2.4392555,-1.484405,-7.9870567,-3.3758245
0.3161096,4.5087967,5.6195717,-2.0681443,-2.4392555,-1.484405,-7.9870567,-3.3758245
0.31404728,4.515009,5.533285,-1.978662,-2.445647,-1.6041151,-7.61835,-3.0502129
0.31196007,4.5212483,5.533285,-1.978662,-2.445647,-1.6041151,-7.61835,-3.0502129
0.30984655,4.5273213,5.4256935,-1.8923756,-2.4424512,-1.4796166,-7.192182,-2.6431987
0.307724,4.5333776,5.4256935,-1.8923756,-2.4424512,-1.4796166,-7.192182,-2.6431987
0.30556157,4.539277,5.294666,-1.8071544,-2.4317985,-1.1061212,-6.6510925,-2.2170308
0.30338705,4.545172,5.294666,-1.8071544,-2.4317985,-1.1061212,-6.6510925,-2.2170308
0.30116618,4.5509067,5.138072,-1.7198027,-2.4115584,-0.16280572,-5.995081,-1.8435353
0.29893753,4.5566244,5.138072,-1.7198027,-2.4115584,-0.16280572,-5.995081,-1.8435353
0.2966917,4.5621357,4.94952,-1.623929,-2.3881228,1.067814,-5.1762643,-1.4987702
0.294535,4.5673947,4.94952,-1.623929,-2.3881228,1.067814,-5.1762643,-1.4987702
0.29227164,4.572656,4.7279453,-1.5088804,-2.3678827,2.2409728,-4.343082,-1.1109096
0.29227164,4.572656,4.7279453,-1.5088804,-2.3678827,2.2409728,-4.343082,-1.1109096
0.28761306,4.5831137,4.469086,-1.3693308,-2.3540342,2.9783869,-3.6248214,-0.6799533
0.2853376,4.5880394,4.469086,-1.3693308,-2.3540342,2.9783869,-3.6248214,-0.6799533
0.28303796,4.592658,4.1729426,-1.2084758,-2.348708,3.2465374,-2.9640217,-0.12928689
0.28072658,4.5972786,4.1729426,-1.2084758,-2.348708,3.2465374,-2.9640217,-0.12928689
0.2784061,4.6015253,3.844841,-1.0305767,-2.3476427,3.1651347,-2.5187001,0.545878
0.2760869,4.605753,3.844841,-1.0305767,-2.3476427,3.1651347,-2.5187001,0.545878
0.2737622,4.609582,3.490108,-0.8473512,-2.3433816,3.083732,-2.2361844,1.1923125
0.2714284,4.613413,3.490108,-0.8473512,-2.3433816,3.083732,-2.2361844,1.1923125
0.26910013,4.6168222,3.115135,-0.6619952,-2.3284678,3.0071173,-2.2697031,1.8722657
0.26910013,4.6168222,3.115135,-0.6619952,-2.3284678,3.0071173,-2.2697031,1.8722657
0.26675928,4.620241,2.7284439,-0.48196548,-2.2986405,3.0310593,-2.2840683,2.5809495
0.26215285,4.6261578,2.7284439,-0.48196548,-2.2986405,3.0310593,-2.2840683,2.5809495
0.26215285,4.6261578,2.7284439,-0.48196548,-2.2986405,3.0310593,-2.2840683,2.5809495
0.25760055,4.631199,2.3364265,-0.30619684,-2.252834,3.2513258,-2.4899697,3.1651347
0.25537446,4.6332755,1.9422787,-0.13468927,-2.1931794,3.2369606,-2.7581203,3.53863
0.25313875,4.6353583,1.9422787,-0.13468927,-2.1931794,3.2369606,-2.7581203,3.53863
0.2509734,4.6369987,1.5481309,0.032557253,-2.115415,3.2034419,-3.1890767,3.8786068
0.24880993,4.6386366,1.5481309,0.032557253,-2.115415,3.2034419,-3.1890767,3.8786068
0.24672703,4.639846,1.1582441,0.18808587,-2.022737,3.2465374,-3.4715924,4.2425256
0.24464218,4.6410556,1.1582441,0.18808587,-2.022737,3.2465374,-3.4715924,4.2425256
0.24265821,4.641843,0.7747489,0.33722287,-1.9172758,3.0597897,-3.7301662,4.4340615
0.24067241,4.6426306,0.7747489,0.33722287,-1.9172758,3.0597897,-3.7301662,4.4340615
0.2387946,4.643001,0.39338422,0.4799683,-1.7979661,3.1364043,-3.9312792,4.462792
0.23691696,4.6433716,0.39338422,0.4799683,-1.7979661,3.1364043,-3.9312792,4.462792
0.23516059,4.64333,0.016280606,0.61632216,-1.6648082,3.2752678,-3.98874,4.55856
0.23340778,4.6432896,0.016280606,0.61632216,-1.6648082,3.2752678,-3.98874,4.55856
0.2317888,4.64284,-0.35975775,0.7505455,-1.5188669,3.3997664,-3.9935284,4.606444
0.23016968,4.642391,-0.35975775,0.7505455,-1.5188669,3.3997664,-3.9935284,4.606444
0.22870018,4.64154,-0.73046976,0.8826383,-1.3601425,3.4572272,-4.012682,4.6016555
0.22722709,4.640689,-0.73046976,0.8826383,-1.3601425,3.4572272,-4.012682,4.6016555
0.22591166,4.639438,-1.0990512,1.014731,-1.1939613,3.466804,-3.9217024,4.654328
0.22459777,4.638191,-1.0990512,1.014731,-1.1939613,3.466804,-3.9217024,4.654328
0.22343558,4.636541,-1.4655023,1.1425629,-1.0245842,3.6870706,-3.8067808,4.630386
0.22227414,4.6348953,-1.4655023,1.1425629,-1.0245842,3.6870706,-3.8067808,4.630386
0.2212761,4.6328564,-1.8330185,1.2714598,-0.85094607,3.5194764,-3.6966474,4.477157
0.2202718,4.6308107,-1.8330185,1.2714598,-0.85094607,3.5194764,-3.6966474,4.477157
0.21943104,4.628374,-2.1984043,1.4003568,-0.67517745,3.3279405,-3.7014358,4.2760444
0.21859062,4.6259484,-2.1984043,1.4003568,-0.67517745,3.3279405,-3.7014358,4.2760444
0.21790479,4.623122,-2.5616593,1.5207317,-0.5026046,3.1794999,-3.6487634,4.122815
0.2172115,4.6202826,-2.5616593,1.5207317,-0.5026046,3.1794999,-3.6487634,4.122815
0.21667925,4.617068,-2.9217188,1.6379108,-0.3289665,2.8538885,-3.715801,3.9121256
0.21614581,4.613877,-2.9217188,1.6379108,-0.3289665,2.8538885,-3.715801,3.9121256
0.21576978,4.6102834,-3.2796476,1.7508289,-0.15106732,2.4947581,-3.892972,3.6583402
0.21538542,4.606669,-3.2796476,1.7508289,-0.15106732,2.4947581,-3.892972,3.6583402
0.21516488,4.6026983,-3.6333153,1.8552247,0.030027634,2.231396,-4.1419687,3.3997664
0.21493776,4.598736,-3.6333153,1.8552247,0.030027634,2.231396,-4.1419687,3.3997664
0.21487106,4.5943933,-3.978461,1.9479028,0.21325313,2.0973208,-4.4723687,3.1364043
0.21479635,4.5900545,-3.978461,1.9479028,0.21325313,2.0973208,-4.4723687,3.1364043
0.21488048,4.5853558,-4.312954,2.0277975,0.39541334,1.9249382,-4.8602295,2.8299465
0.21488048,4.5853558,-4.312954,2.0277975,0.39541334,1.9249382,-4.8602295,2.8299465
0.21495575,4.580633,-4.6282725,2.0970397,0.5733125,1.8435353,-5.2768207,2.6384103
0.21518523,4.5755935,-4.6282725,2.0970397,0.5733125,1.8435353,-5.2768207,2.6384103
0.21576868,4.5652623,-4.9212203,2.1588252,0.7469506,1.7908629,-5.755661,2.4516625
0.21612391,4.559929,-4.9212203,2.1588252,0.7469506,1.7908629,-5.755661,2.4516625
0.21661986,4.5542903,-5.1896667,2.2174146,0.9152624,1.7429788,-6.133945,2.1164744
0.2171024,4.548661,-5.1896667,2.2174146,0.9152624,1.7429788,-6.133945,2.1164744
0.21771559,4.5427647,-5.4293513,2.2760043,1.0761173,1.8148049,-6.6846113,1.8914193
0.21831506,4.536866,-5.4293513,2.2760043,1.0761173,1.8148049,-6.6846113,1.8914193
0.21904095,4.530734,-5.641339,2.3367243,1.2348417,1.4077905,-7.1107793,1.3790601
0.21975236,4.5245996,-5.641339,2.3367243,1.2348417,1.4077905,-7.1107793,1.3790601
0.2205833,4.518259,-5.82776,2.392118,1.3861092,0.9720459,-7.5848308,0.93373865
0.2213987,4.511915,-5.82776,2.392118,1.3861092,0.9720459,-7.5848308,0.93373865
0.22232015,4.5053883,-5.9854193,2.4379244,1.5320505,1.1061212,-8.058883,0.5315128
0.22322592,4.498851,-5.9854193,2.4379244,1.5320505,1.1061212,-8.058883,0.5315128
0.22422945,4.492166,-6.1196427,2.480535,1.6726655,1.1731589,-8.42759,0.076614454
0.22521757,4.485464,-6.1196427,2.480535,1.6726655,1.1731589,-8.42759,0.076614454
0.2263008,4.4786425,-6.233626,2.5220802,1.8036929,0.5602432,-8.762778,-0.36870706
0.22736713,4.4718103,-6.233626,2.5220802,1.8036929,0.5602432,-8.762778,-0.36870706
0.22853123,4.4648833,-6.3252387,2.5540383,1.9251331,-0.21068975,-9.040505,-0.6512229
0.22967906,4.4579377,-6.3252387,2.5540383,1.9251331,-0.21068975,-9.040505,-0.6512229
0.23092394,4.4509177,-6.395546,2.5732129,2.0444427,-0.7326257,-9.32781,-0.91458505
0.23092394,4.4509177,-6.395546,2.5732129,2.0444427,-0.7326257,-9.32781,-0.91458505
0.23215334,4.4438715,-6.395546,2.5732129,2.0444427,-0.7326257,-9.32781,-0.91458505
0.23364273,4.4358616,-6.4456134,2.5742784,2.1637523,-1.0055647,-9.662998,-1.2258313
0.23616517,4.422574,-6.4733105,2.5582993,2.2798662,-1.1779473,-10.04607,-1.3934253
0.23747204,4.415801,-6.4733105,2.5582993,2.2798662,-1.1779473,-10.04607,-1.3934253
0.23894547,4.408637,-6.479702,2.5316677,2.388523,-1.3742718,-10.43872,-1.5801731
0.24046299,4.4011436,-6.479702,2.5316677,2.388523,-1.3742718,-10.43872,-1.5801731
0.24200301,4.3939953,-6.4658537,2.4986444,2.4907885,-1.6280571,-10.840945,-1.7669208
0.24351606,4.386868,-6.4658537,2.4986444,2.4907885,-1.6280571,-10.840945,-1.7669208
0.24512464,4.3797474,-6.4338956,2.4592297,2.5866623,-1.9153614,-11.271901,-1.8579005
0.24672596,4.372555,-6.4338956,2.4592297,2.5866623,-1.9153614,-11.271901,-1.8579005
0.24839267,4.3654666,-6.382763,2.4144886,2.6718836,-2.1308396,-11.520899,-2.0207062
0.25003442,4.3583837,-6.382763,2.4144886,2.6718836,-2.1308396,-11.520899,-2.0207062
0.25175548,4.3513417,-6.3124557,2.3580296,2.7485826,-2.2984335,-11.856087,-2.1547816
0.2534496,4.344312,-6.3124557,2.3580296,2.7485826,-2.2984335,-11.856087,-2.1547816
0.2534496,4.344312,-6.2197776,2.2919831,2.8124983,-2.5330653,-12.129025,-2.3175871
0.25521934,4.3373427,-6.2197776,2.2919831,2.8124983,-2.5330653,-12.129025,-2.3175871
0.25695524,4.3304124,-6.107925,2.2163494,2.863631,-2.7389667,-12.411542,-2.5617957
0.25876606,4.32353,-6.107925,2.2163494,2.863631,-2.7389667,-12.411542,-2.5617957
0.26054284,4.3166866,-5.9737015,2.1311283,2.8998501,-2.834735,-12.4785795,-2.7629087
0.2623673,4.309979,-5.9737015,2.1311283,2.8998501,-2.834735,-12.4785795,-2.7629087
0.26794466,4.2897897,-5.8171077,2.0352545,2.9264817,-2.8874073,-12.540829,-2.9017725
0.26794466,4.2897897,-5.8171077,2.0352545,2.9264817,-2.8874073,-12.540829,-2.9017725
0.26794466,4.2897897,-5.8171077,2.0352545,2.9264817,-2.8874073,-12.540829,-2.9017725
0.26974928,4.2835784,-5.6445346,1.9265975,2.9392648,-2.633622,-12.761095,-2.96881
0.2715634,4.2772627,-5.6445346,1.9265975,2.9392648,-2.633622,-12.761095,-2.96881
0.27363932,4.2704115,-5.453852,1.81581,2.936069,-3.0071173,-12.344504,-3.2609026
0.27533254,4.2647595,-5.453852,1.81581,2.936069,-3.0071173,-12.344504,-3.2609026
0.27735335,4.2582817,-5.247191,1.7039572,2.919025,-2.791639,-12.291832,-3.3997664
0.27735335,4.2582817,-5.247191,1.7039572,2.919025,-2.791639,-12.291832,-3.3997664
0.28253794,4.241585,-5.029877,1.582517,2.8817406,-2.4899697,-12.722788,-3.2752678
0.28435844,4.2361274,-4.795519,1.4664032,2.8327384,-2.8107927,-12.737153,-3.5625722
0.2861613,4.2306724,-4.795519,1.4664032,2.8327384,-2.8107927,-12.737153,-3.5625722
0.287938,4.225479,-4.541986,1.3492241,2.7634962,-2.360683,-12.842498,-3.5194764
0.28971288,4.2202473,-4.541986,1.3492241,2.7634962,-2.360683,-12.842498,-3.5194764
0.29144388,4.215373,-4.271409,1.2341756,2.6804056,-2.5617957,-13.158532,-3.5625722
0.2931654,4.2104874,-4.271409,1.2341756,2.6804056,-2.5617957,-13.158532,-3.5625722
0.29487994,4.2058764,-3.9795263,1.1223228,2.5909233,-2.9735985,-13.187263,-3.7780502
0.29487994,4.2058764,-3.9795263,1.1223228,2.5909233,-2.9735985,-13.187263,-3.7780502
0.2981943,4.1971445,-3.671665,1.0030131,2.4939842,-3.5290532,-13.244724,-4.1180267
0.2998424,4.192935,-3.671665,1.0030131,2.4939842,-3.5290532,-13.244724,-4.1180267
0.30147123,4.1890955,-3.3520856,0.86665934,2.3906536,-4.027047,-13.335704,-4.4101195
0.30310178,4.1852274,-3.3520856,0.86665934,2.3906536,-4.027047,-13.335704,-4.4101195
0.30470747,4.181754,-3.022919,0.70367384,2.278801,-4.1659107,-13.570335,-4.7070007
0.30630335,4.1782823,-3.022919,0.70367384,2.278801,-4.1659107,-13.570335,-4.7070007
0.30787215,4.1752133,-2.6820343,0.5204484,2.1573608,-3.9073372,-13.623008,-4.9224787
0.30943578,4.17214,-2.6820343,0.5204484,2.1573608,-3.9073372,-13.623008,-4.9224787
0.31096342,4.1694946,-2.3283665,0.3308313,2.0242026,-3.643975,-13.771448,-5.094861
0.3124965,4.16683,-2.3283665,0.3308313,2.0242026,-3.643975,-13.771448,-5.094861
0.3139862,4.1646132,-1.9661765,0.14227949,1.8782614,-3.6391866,-13.713987,-5.4061074
0.315497,4.1623583,-1.9661765,0.14227949,1.8782614,-3.6391866,-13.713987,-5.4061074
0.31691855,4.1606083,-1.5943992,-0.040945996,1.7206023,-3.6391866,-13.498509,-5.6886234
0.31835848,4.1588316,-1.5943992,-0.040945996,1.7206023,-3.6391866,-13.498509,-5.6886234
0.31973973,4.157513,-1.2162304,-0.22097568,1.5586821,-3.6343982,-13.244724,-5.9902925
0.32113093,4.1561823,-1.2162304,-0.22097568,1.5586821,-3.6343982,-13.244724,-5.9902925
0.322451,4.1553106,-0.83912677,-0.3999401,1.3871746,-3.620033,-12.899959,-6.3111157
0.32377017,4.1544375,-0.83912677,-0.3999401,1.3871746,-3.620033,-12.899959,-6.3111157
0.32501185,4.1540127,-0.46521893,-0.57357824,1.2114059,-3.5625722,-12.579136,-6.5265937
0.32626033,4.1535845,-0.46521893,-0.57357824,1.2114059,-3.5625722,-12.579136,-6.5265937
0.32742247,4.1535945,-0.09663743,-0.74295527,1.0313762,-3.5290532,-12.306197,-6.7372837
0.32858622,4.1536045,-0.09663743,-0.74295527,1.0313762,-3.5290532,-12.306197,-6.7372837
0.3296591,4.1540356,0.2655525,-0.9080713,0.8460202,-3.5194764,-12.100295,-6.9862804
0.33073026,4.1544657,0.2655525,-0.9080713,0.8460202,-3.5194764,-12.100295,-6.9862804
0.33170855,4.155302,0.6202856,-1.0667957,0.6542726,-3.5290532,-11.942278,-7.1873937
0.33269393,4.156145,0.6202856,-1.0667957,0.6542726,-3.5290532,-11.942278,-7.1873937
0.33358797,4.157377,0.9664965,-1.2201937,0.45826393,-3.6008794,-11.827356,-7.431602
0.33448318,4.1586103,0.9664965,-1.2201937,0.45826393,-3.6008794,-11.827356,-7.431602
0.33529797,4.1602354,1.3041854,-1.3682655,0.26651633,-3.6535518,-11.765107,-7.608773
0.33611375,4.1618633,1.3041854,-1.3682655,0.26651633,-3.6535518,-11.765107,-7.608773
0.33684945,4.1638794,1.6344173,-1.5088804,0.08009506,-3.643975,-11.779472,-7.809886
0.33758467,4.1658974,1.6344173,-1.5088804,0.08009506,-3.643975,-11.779472,-7.809886
0.33823296,4.168303,1.9603882,-1.6431037,-0.10313042,-3.6583402,-11.765107,-7.872135
0.33888337,4.170723,1.9603882,-1.6431037,-0.10313042,-3.6583402,-11.765107,-7.872135
0.3394452,4.17352,2.2810328,-1.7698702,-0.28529066,-3.643975,-11.707646,-8.001422
0.3400048,4.1763196,2.2810328,-1.7698702,-0.28529066,-3.643975,-11.707646,-8.001422
0.34047818,4.1794877,2.5942206,-1.8881146,-0.45786348,-3.5434184,-11.530476,-8.121132
0.3409484,4.182662,2.5942206,-1.8881146,-0.45786348,-3.5434184,-11.530476,-8.121132
0.34132934,4.186182,2.8988862,-1.9967716,-0.62297946,-3.3854012,-11.257536,-8.221688
0.34170723,4.189728,2.8988862,-1.9967716,-0.62297946,-3.3854012,-11.257536,-8.221688
0.3419898,4.193612,3.1907687,-2.094776,-0.78063864,-3.1890767,-11.042058,-8.259995
0.34226534,4.1974964,3.1907687,-2.094776,-0.78063864,-3.1890767,-11.042058,-8.259995
0.34244725,4.2017117,3.4709332,-2.1821275,-0.9329714,-3.0358477,-10.730812,-8.346188
0.34262067,4.205927,3.4709332,-2.1821275,-0.9329714,-3.0358477,-10.730812,-8.346188
0.34270617,4.210429,3.731923,-2.252435,-1.0767821,-3.169923,-10.390836,-8.528147
0.342782,4.214945,3.731923,-2.252435,-1.0767821,-3.169923,-10.390836,-8.528147
0.34276277,4.2197514,3.9716074,-2.3099592,-1.213136,-3.217807,-10.084377,-8.719683
0.34273213,4.2245426,3.9716074,-2.3099592,-1.213136,-3.217807,-10.084377,-8.719683
0.34273213,4.2245426,4.191052,-2.3568308,-1.3399024,-3.265691,-9.835381,-8.6813755
0.3426017,4.2296877,4.191052,-2.3568308,-1.3399024,-3.265691,-9.835381,-8.6813755
0.34246236,4.2346807,4.3870606,-2.3951805,-1.454951,-3.193865,-9.677363,-8.6813755
0.34197402,4.2451744,4.3870606,-2.3951805,-1.454951,-3.193865,-9.677363,-8.6813755
0.34163234,4.2506256,4.5575027,-2.426073,-1.5572164,-3.193865,-9.519346,-8.48984
0.34127638,4.2560697,4.5575027,-2.426073,-1.5572164,-3.193865,-9.519346,-8.48984
0.3408379,4.2617173,4.7066402,-2.445248,-1.6435028,-3.2992098,-9.370906,-8.298303
0.34038606,4.267335,4.7066402,-2.445248,-1.6435028,-3.2992098,-9.370906,-8.298303
0.33985323,4.273097,4.8344717,-2.4527047,-1.7180713,-3.2369606,-9.255983,-8.159439
0.33930597,4.278838,4.8344717,-2.4527047,-1.7180713,-3.2369606,-9.255983,-8.159439
0.3386846,4.2847342,4.9420633,-2.4527047,-1.7809219,-3.347094,-9.217676,-7.9726915
0.3386846,4.2847342,4.9420633,-2.4527047,-1.7809219,-3.347094,-9.217676,-7.9726915
0.33804974,4.290597,4.9420633,-2.4527047,-1.7809219,-3.347094,-9.217676,-7.9726915
0.33665255,4.3025103,5.029415,-2.4441826,-1.8288589,-3.6391866,-9.155427,-7.723695
0.3358908,4.308554,5.1007876,-2.430334,-1.8618821,-3.6343982,-9.102755,-7.431602
0.33513063,4.3144493,5.1007876,-2.430334,-1.8618821,-3.6343982,-9.102755,-7.431602
0.33513063,4.3144493,5.160443,-2.4090288,-1.8810568,-3.3423057,-9.064447,-7.4507556
0.3342707,4.3207536,5.160443,-2.4090288,-1.8810568,-3.3423057,-9.064447,-7.4507556
0.3325556,4.3327622,5.2041187,-2.37281,-1.8863832,-2.9161377,-8.944737,-7.4363904
0.3316469,4.3388553,5.2041187,-2.37281,-1.8863832,-2.9161377,-8.944737,-7.4363904
0.3306989,4.344947,5.23075,-2.3195467,-1.8810568,-2.480393,-8.7292595,-7.5082164
0.32973567,4.3510275,5.23075,-2.3195467,-1.8810568,-2.480393,-8.7292595,-7.5082164
0.32873562,4.357075,5.2403374,-2.2460434,-1.8725346,-2.0925324,-8.327033,-7.6614456
0.3277127,4.3631597,5.2403374,-2.2460434,-1.8725346,-2.0925324,-8.327033,-7.6614456
0.32664987,4.3691673,5.2286196,-2.1544306,-1.8629473,-1.6136919,-7.843405,-7.4363904
0.32557082,4.3751755,5.2286196,-2.1544306,-1.8629473,-1.6136919,-7.843405,-7.4363904
0.32444805,4.381097,5.1892047,-2.0457737,-1.8522947,-1.2162545,-7.225701,-7.1873937
0.32330877,4.387024,5.1892047,-2.0457737,-1.8522947,-1.2162545,-7.225701,-7.1873937
0.32211813,4.3928385,5.122093,-1.9200726,-1.8437725,-0.842759,-6.6893997,-6.7851677
0.32091668,4.398636,5.122093,-1.9200726,-1.8437725,-0.842759,-6.6893997,-6.7851677
0.32091668,4.398636,5.122093,-1.9200726,-1.8437725,-0.842759,-6.6893997,-6.7851677
0.31838796,4.409957,5.0272846,-1.7773271,-1.837381,-0.60333884,-6.1626754,-6.253655
0.3170699,4.415397,4.901583,-1.6217984,-1.8299241,-0.34955344,-5.683835,-5.60722
0.31573206,4.4208703,4.901583,-1.6217984,-1.8299241,-0.34955344,-5.683835,-5.60722
0.31573206,4.4208703,4.7460546,-1.4492257,-1.8171409,0.0047884034,-5.2002063,-4.960786
0.3129329,4.4313793,4.7460546,-1.4492257,-1.8171409,0.0047884034,-5.2002063,-4.960786
0.31147918,4.4363656,4.5617642,-1.2670654,-1.8022273,0.34476504,-4.7644615,-4.3957543
0.31000602,4.441386,4.5617642,-1.2670654,-1.8022273,0.34476504,-4.7644615,-4.3957543
0.30847844,4.4461136,4.348711,-1.0785136,-1.7883788,0.7613561,-4.4101195,-3.7445314
0.30694136,4.4508452,4.348711,-1.0785136,-1.7883788,0.7613561,-4.4101195,-3.7445314
0.30534953,4.455267,4.106896,-0.8835702,-1.773465,1.0726024,-4.1419687,-3.0214825
0.30374154,4.4597144,4.106896,-0.8835702,-1.773465,1.0726024,-4.1419687,-3.0214825
0.302085,4.46383,3.8395147,-0.685431,-1.7574861,1.2066777,-3.9983168,-2.2601264
0.3004227,4.4679456,3.8395147,-0.685431,-1.7574861,1.2066777,-3.9983168,-2.2601264
0.29872498,4.4717193,3.550828,-0.48303074,-1.7351155,1.292869,-3.916914,-1.685518
0.2970138,4.4755116,3.550828,-0.48303074,-1.7351155,1.292869,-3.916914,-1.685518
0.2952839,4.47896,3.244032,-0.28489155,-1.7095492,1.340753,-3.9743748,-0.9864111
0.29355142,4.4824047,3.244032,-0.28489155,-1.7095492,1.340753,-3.9743748,-0.9864111
0.29182416,4.4854994,2.9297788,-0.09420922,-1.6797218,1.340753,-4.098873,-0.31124622
0.29008478,4.4886093,2.9297788,-0.09420922,-1.6797218,1.340753,-4.098873,-0.31124622
0.2883754,4.491342,2.6070037,0.085820474,-1.6381766,1.3694834,-4.261679,0.31124622
0.28665495,4.494089,2.6070037,0.085820474,-1.6381766,1.3694834,-4.261679,0.31124622
0.2849721,4.4964614,2.2831633,0.253067,-1.5849133,1.4796166,-4.5298295,0.94810385
0.2832888,4.498832,2.2831633,0.253067,-1.5849133,1.4796166,-4.5298295,0.94810385
0.28164688,4.5008287,1.9603882,0.41072613,-1.5252584,1.6280571,-4.7405195,1.5370775
0.27999505,4.5028367,1.9603882,0.41072613,-1.5252584,1.6280571,-4.7405195,1.5370775
0.27839372,4.504473,1.6408089,0.5609284,-1.4538858,1.8100165,-4.9703627,2.0446482
0.2767926,4.5061097,1.6408089,0.5609284,-1.4538858,1.8100165,-4.9703627,2.0446482
0.27525273,4.5073814,1.3244253,0.7047391,-1.3707951,1.958457,-5.1523223,2.4516625
0.2737026,4.508662,1.3244253,0.7047391,-1.3707951,1.958457,-5.1523223,2.4516625
0.2737026,4.508662,1.0101724,0.845354,-1.2791824,2.0350714,-5.2528787,3.016694
0.27075166,4.510501,1.0101724,0.845354,-1.2791824,2.0350714,-5.2528787,3.016694
0.26936102,4.5110645,0.6991151,0.98383844,-1.176917,2.1068976,-5.291186,3.5098996
0.2679595,4.5116334,0.6991151,0.98383844,-1.176917,2.1068976,-5.291186,3.5098996
0.26665285,4.511847,0.38699263,1.1180618,-1.0661294,2.1308396,-5.391742,4.189853
0.2653412,4.512063,0.38699263,1.1180618,-1.0661294,2.1308396,-5.391742,4.189853
0.26412863,4.511923,0.07273962,1.2533504,-0.9468199,2.2218192,-5.3678,4.644751
0.26290867,4.5117836,0.07273962,1.2533504,-0.9468199,2.2218192,-5.3678,4.644751
0.2617957,4.5112863,-0.24470918,1.3907695,-0.8179229,2.3989902,-5.3103395,5.056554
0.26067692,4.5107875,-0.24470918,1.3907695,-0.8179229,2.3989902,-5.3103395,5.056554
0.25966614,4.5099244,-0.5674843,1.5292538,-0.6826343,2.4037786,-5.2049947,5.506664
0.2586545,4.509063,-0.5674843,1.5292538,-0.6826343,2.4037786,-5.2049947,5.506664
0.25775495,4.5078335,-0.8977163,1.6688035,-0.54414994,2.327164,-5.209783,5.8466406
0.2568481,4.5065994,-0.8977163,1.6688035,-0.54414994,2.327164,-5.209783,5.8466406
0.2560565,4.504994,-1.2332746,1.804092,-0.40246972,2.207454,-5.21936,6.2345014
0.25526062,4.503387,-1.2332746,1.804092,-0.40246972,2.207454,-5.21936,6.2345014
0.2545808,4.501412,-1.5709634,1.9319237,-0.25865903,2.030283,-5.3342814,6.469133
0.2538934,4.499426,-1.5709634,1.9319237,-0.25865903,2.030283,-5.3342814,6.469133
0.25331938,4.4970737,-1.9107828,2.0491028,-0.11697886,1.8770541,-5.5258174,6.5505357
0.25273964,4.494718,-1.9107828,2.0491028,-0.11697886,1.8770541,-5.5258174,6.5505357
0.25227484,4.492005,-2.2484717,2.1492376,0.024701312,1.6519991,-5.861006,6.622362
0.2518011,4.489274,-2.2484717,2.1492376,0.024701312,1.6519991,-5.861006,6.622362
0.2514429,4.4861984,-2.5808342,2.2323284,0.16531622,1.4030021,-6.277597,6.5361705
0.25107774,4.483121,-2.5808342,2.2323284,0.16531622,1.4030021,-6.277597,6.5361705
0.25107774,4.483121,-2.5808342,2.2323284,0.16531622,1.4030021,-6.277597,6.5361705
0.25107774,4.483121,-2.5808342,2.2323284,0.16531622,1.4030021,-6.277597,6.5361705
0.25063354,4.4718986,-3.2157319,2.3324633,0.426306,0.93852705,-7.1634517,6.5265937
0.25046304,4.468045,-3.2157319,2.3324633,0.426306,0.93852705,-7.1634517,6.5265937
0.25046304,4.468045,-3.503353,2.3495073,0.5520072,0.79487497,-7.5321584,6.4260373
0.25033668,4.459818,-3.503353,2.3495073,0.5520072,0.79487497,-7.5321584,6.4260373
0.25033668,4.459818,-3.503353,2.3495073,0.5520072,0.79487497,-7.5321584,6.4260373
0.25040343,4.451246,-3.7664735,2.348442,0.6723821,0.7326257,-8.030152,6.2584434
0.25052777,4.4468565,-3.9997663,2.3345938,0.7842349,0.6847417,-8.475474,6.196194
0.2506457,4.4423113,-3.9997663,2.3345938,0.7842349,0.6847417,-8.475474,6.196194
0.25085825,4.437553,-4.204297,2.306897,0.8886308,0.7134721,-8.8777,5.803545
0.25105926,4.4327936,-4.204297,2.306897,0.8886308,0.7134721,-8.8777,5.803545
0.2513532,4.4278626,-4.3779354,2.2685473,0.9877004,0.63206923,-9.212888,5.439626
0.2516351,4.4229307,-4.3779354,2.2685473,0.9877004,0.63206923,-9.212888,5.439626
0.2520058,4.417859,-4.521746,2.222741,1.0803784,0.51235914,-9.509769,5.032612
0.25236425,4.4127865,-4.521746,2.222741,1.0803784,0.51235914,-9.509769,5.032612
0.2528142,4.4075503,-4.63786,2.1694777,1.1698606,0.49320555,-9.835381,4.673482
0.25324392,4.402406,-4.63786,2.1694777,1.1698606,0.49320555,-9.835381,4.673482
0.2537542,4.397144,-4.726277,2.1130188,1.2508208,0.6751649,-10.127473,4.19943
0.25425258,4.3918734,-4.726277,2.1130188,1.2508208,0.6751649,-10.127473,4.19943
0.2548245,4.386545,-4.792323,2.053364,1.3221934,0.46926352,-10.290278,3.7684734
0.25538418,4.3812146,-4.792323,2.053364,1.3221934,0.46926352,-10.290278,3.7684734
0.25601682,4.3758483,-4.8381295,1.9905133,1.3882399,-0.076614454,-10.448297,3.217807
0.25663656,4.370485,-4.8381295,1.9905133,1.3882399,-0.076614454,-10.448297,3.217807
0.25732902,4.365104,-4.8658266,1.9223363,1.4521557,-0.48362875,-10.491392,2.695871
0.25800788,4.359731,-4.8658266,1.9223363,1.4521557,-0.48362875,-10.491392,2.695871
0.25876257,4.3543334,-4.879675,1.852029,1.5171368,-0.7038953,-10.563218,2.183512
0.25950378,4.348943,-4.879675,1.852029,1.5171368,-0.7038953,-10.563218,2.183512
0.26032013,4.3435574,-4.879675,1.7827867,1.5831832,-0.9576807,-10.529699,1.5466543
0.26112467,4.338168,-4.879675,1.7827867,1.5831832,-0.9576807,-10.529699,1.5466543
0.26200008,4.3327956,-4.872218,1.7135446,1.6492296,-0.9528923,-10.529699,0.9528923
0.26200008,4.3327956,-4.872218,1.7135446,1.6492296,-0.9528923,-10.529699,0.9528923
0.2629257,4.327032,-4.872218,1.7135446,1.6492296,-0.9528923,-10.529699,0.9528923
0.26386052,4.3216586,-4.856239,1.6485634,1.711015,-1.163582,-10.414778,0.20590134
0.26474723,4.316496,-4.8328032,1.582517,1.7642782,-1.0295067,-10.453085,-0.24899697
0.26665404,4.306035,-4.8328032,1.582517,1.7642782,-1.0295067,-10.453085,-0.24899697
0.2676657,4.300761,-4.8029757,1.5186012,1.8058234,-1.1731589,-10.534488,-0.7757214
0.2686696,4.2954683,-4.8029757,1.5186012,1.8058234,-1.1731589,-10.534488,-0.7757214
0.26971835,4.2902184,-4.763561,1.4589463,1.8399119,-1.4221559,-10.6398325,-1.2689269
0.2707535,4.28498,-4.763561,1.4589463,1.8399119,-1.4221559,-10.6398325,-1.2689269
0.2718314,4.27976,-4.7092323,1.397161,1.860152,-1.6567876,-10.7356,-1.70946
0.27289057,4.2745776,-4.7092323,1.397161,1.860152,-1.6567876,-10.7356,-1.70946
0.2739783,4.2694693,-4.63786,1.3311146,1.8708047,-1.9249382,-10.807426,-2.2697031
0.2750476,4.2643986,-4.63786,1.3311146,1.8708047,-1.9249382,-10.807426,-2.2697031
0.2750476,4.2643986,-4.5483775,1.2544156,1.8718699,-2.1739352,-10.879252,-2.8682537
0.27724472,4.254354,-4.5483775,1.2544156,1.8718699,-2.1739352,-10.879252,-2.8682537
0.27833945,4.2494707,-4.440786,1.167064,1.860152,-2.1260512,-10.912771,-3.3901896
0.27942398,4.244593,-4.440786,1.167064,1.860152,-2.1260512,-10.912771,-3.3901896
0.28050652,4.2398605,-4.3161497,1.0743859,1.8345857,-2.1260512,-11.042058,-3.8067808
0.28158408,4.2351155,-4.3161497,1.0743859,1.8345857,-2.1260512,-11.042058,-3.8067808
0.2826396,4.2305384,-4.170209,0.9806426,1.7951708,-2.0350714,-11.133038,-4.295198
0.2836881,4.2259636,-4.170209,0.9806426,1.7951708,-2.0350714,-11.133038,-4.295198
0.284709,4.221552,-4.007223,0.8858341,1.7440381,-1.9440918,-11.075577,-4.745308
0.2857219,4.217152,-4.007223,0.8858341,1.7440381,-1.9440918,-11.075577,-4.745308
0.28669405,4.212928,-3.8271935,0.7931561,1.683318,-1.8052281,-10.941502,-5.2768207
0.28766167,4.2087035,-3.8271935,0.7931561,1.683318,-1.8052281,-10.941502,-5.2768207
0.2885909,4.204671,-3.63225,0.7026086,1.6087495,-1.8100165,-10.754754,-5.7029886
0.28951243,4.200651,-3.63225,0.7026086,1.6087495,-1.8100165,-10.754754,-5.7029886
0.2904042,4.1968164,-3.4287846,0.6152569,1.5277895,-1.8579005,-10.6158905,-6.220136
0.29128763,4.192994,-3.4287846,0.6152569,1.5277895,-1.8579005,-10.6158905,-6.220136
0.2921468,4.1893725,-3.2199929,0.53003573,1.4404378,-1.910573,-10.491392,-6.6750345
0.2930001,4.185752,-3.2199929,0.53003573,1.4404378,-1.910573,-10.491392,-6.6750345
0.29382378,4.182359,-3.0080051,0.45120618,1.3477597,-2.030283,-10.352529,-7.101202
0.29464355,4.17896,-3.0080051,0.45120618,1.3477597,-2.030283,-10.352529,-7.101202
0.2954322,4.1757965,-2.7949524,0.37237662,1.2508208,-2.1452048,-10.199299,-7.5082164
0.29621756,4.172627,-2.7949524,0.37237662,1.2508208,-2.1452048,-10.199299,-7.5082164
0.2969672,4.1696973,-2.5829647,0.29461232,1.1538817,-2.1978772,-10.113108,-7.867347
0.29771143,4.166773,-2.5829647,0.29461232,1.1538817,-2.1978772,-10.113108,-7.867347
0.29842243,4.1640763,-2.3731077,0.21578273,1.0569426,-2.3127987,-10.117896,-8.154651
0.29910827,4.161463,-2.3731077,0.21578273,1.0569426,-2.3127987,-10.117896,-8.154651
0.29977974,4.1590133,-2.1643157,0.1358879,0.96106875,-2.4229321,-10.0748005,-8.37013
0.30047044,4.156482,-2.1643157,0.1358879,0.96106875,-2.4229321,-10.0748005,-8.37013
0.30110836,4.154273,-1.9544586,0.05173201,0.8673255,-2.5234885,-10.103531,-8.585608
0.30174038,4.1520767,-1.9544586,0.05173201,0.8673255,-2.5234885,-10.103531,-8.585608
0.3023512,4.1501102,-1.7435362,-0.03455441,0.7778433,-2.5809495,-10.041282,-8.805874
0.302963,4.1481347,-1.7435362,-0.03455441,0.7778433,-2.5809495,-10.041282,-8.805874
0.30354753,4.1464205,-1.5283529,-0.124036625,0.6894263,-2.6192567,-10.036493,-9.035717
0.30354753,4.1464205,-1.5283529,-0.124036625,0.6894263,-2.6192567,-10.036493,-9.035717
0.3041605,4.1446185,-1.5283529,-0.124036625,0.6894263,-2.6527755,-10.031705,-9.198523
0.30471095,4.143189,-1.3057126,-0.21564937,0.60100937,-2.6527755,-10.031705,-9.198523
0.30578864,4.140597,-1.0766808,-0.30726212,0.5200493,-2.6192567,-10.132261,-9.370906
0.30578864,4.140597,-1.0766808,-0.30726212,0.5200493,-2.6192567,-10.132261,-9.370906
0.30632782,4.1394067,-1.0766808,-0.30726212,0.5200493,-2.705448,-10.204087,-9.605537
0.30737498,4.137588,-0.83912677,-0.40207064,0.44015446,-2.705448,-10.204087,-9.605537
0.30788684,4.1369596,-0.59305066,-0.4958139,0.36239013,-2.767697,-10.271125,-9.710882
0.3083969,4.1363335,-0.59305066,-0.4958139,0.36239013,-2.767697,-10.271125,-9.710882
0.30890787,4.135992,-0.3395177,-0.5895572,0.2920827,-2.9161377,-10.333375,-9.940725
0.30941662,4.135652,-0.3395177,-0.5895572,0.2920827,-2.9161377,-10.333375,-9.940725
0.30992472,4.13561,-0.077462666,-0.685431,0.22497103,-2.9735985,-10.338163,-10.13705
0.31043124,4.1355686,-0.077462666,-0.685431,0.22497103,-2.9735985,-10.338163,-10.13705
0.31094372,4.1358285,0.18778819,-0.78237003,0.16105516,-3.0693667,-10.323798,-10.275913
0.3114544,4.1360884,0.18778819,-0.78237003,0.16105516,-3.0693667,-10.323798,-10.275913
0.31197208,4.1366496,0.45516956,-0.87824386,0.103530884,-3.0933087,-10.232818,-10.539276
0.31248972,4.1372128,0.45516956,-0.87824386,0.103530884,-3.0933087,-10.232818,-10.539276
0.3130128,4.138077,0.7236162,-0.9730524,0.049202394,-3.040636,-10.093954,-10.67814
0.31353575,4.138943,0.7236162,-0.9730524,0.049202394,-3.040636,-10.093954,-10.67814
0.3140645,4.140112,0.99206287,-1.0657305,-0.0029955646,-3.0023289,-10.0508585,-10.840945
0.31459013,4.141277,0.99206287,-1.0657305,-0.0029955646,-3.0023289,-10.0508585,-10.840945
0.31512523,4.1427517,1.258379,-1.1541474,-0.053062994,-2.954445,-9.902418,-10.91756
0.31565678,4.1442213,1.258379,-1.1541474,-0.053062994,-2.954445,-9.902418,-10.91756
0.3161897,4.1459904,1.5214993,-1.2372379,-0.10206516,-2.8778305,-9.89763,-10.998962
0.31671757,4.1477494,1.5214993,-1.2372379,-0.10206516,-2.8778305,-9.89763,-10.998962
0.31724983,4.1498084,1.778228,-1.3128718,-0.1489368,-2.9352913,-9.849746,-10.984597
0.31777823,4.1518617,1.778228,-1.3128718,-0.1489368,-2.9352913,-9.849746,-10.984597
0.31830564,4.1541905,2.0264347,-1.3810487,-0.19261263,-2.9975405,-9.744401,-10.893618
0.31882864,4.156513,2.0264347,-1.3810487,-0.19261263,-2.9975405,-9.744401,-10.893618
0.319346,4.1591153,2.2639885,-1.4449645,-0.23841901,-2.930503,-9.662998,-10.922348
0.3198585,4.1617107,2.2639885,-1.4449645,-0.23841901,-2.930503,-9.662998,-10.922348
0.3203643,4.1645565,2.4898248,-1.5056846,-0.28209487,-2.944868,-9.44752,-10.840945
0.32086483,4.1673956,2.4898248,-1.5056846,-0.28209487,-2.944868,-9.44752,-10.840945
0.32135788,4.1704826,2.6975513,-1.5589478,-0.32364017,-2.9783869,-9.3421755,-10.773908
0.3218359,4.173503,2.6975513,-1.5589478,-0.32364017,-2.9783869,-9.3421755,-10.773908
0.32230765,4.176801,2.8914294,-1.6058195,-0.36625075,-2.96881,-9.165004,-10.625467
0.32278198,4.180153,2.8914294,-1.6058195,-0.36625075,-2.96881,-9.165004,-10.625467
0.32322642,4.1836615,3.071459,-1.6484301,-0.40779606,-2.801216,-9.141062,-10.496181
0.32366088,4.187132,3.071459,-1.6484301,-0.40779606,-2.801216,-9.141062,-10.496181
0.3240728,4.190826,3.2365751,-1.6825185,-0.45040664,-2.7102363,-9.069236,-10.31901
0.32447958,4.1945286,3.2365751,-1.6825185,-0.45040664,-2.7102363,-9.069236,-10.31901
0.32485005,4.198384,3.3910384,-1.7091501,-0.49621302,-2.6479871,-9.035717,-10.108319
0.32521382,4.202237,3.3910384,-1.7091501,-0.49621302,-2.6479871,-9.035717,-10.108319
0.32553816,4.206258,3.533784,-1.7315207,-0.5430846,-2.5330653,-9.040505,-9.792285
0.32585436,4.210259,3.533784,-1.7315207,-0.5430846,-2.5330653,-9.040505,-9.792285
0.32613203,4.2144384,3.666942,-1.752826,-0.5920868,-2.566584,-9.11712,-9.581595
0.32640195,4.2186055,3.666942,-1.752826,-0.5920868,-2.566584,-9.11712,-9.581595
0.32663128,4.222909,3.7937083,-1.7698702,-0.6442848,-2.8060043,-9.141062,-9.414001
0.326853,4.2272086,3.7937083,-1.7698702,-0.6442848,-2.8060043,-9.141062,-9.414001
0.32702985,4.231662,3.9108875,-1.7858492,-0.69328696,-2.7581203,-9.165004,-9.188946
0.32719812,4.2360973,3.9108875,-1.7858492,-0.69328696,-2.7581203,-9.165004,-9.188946
0.32731915,4.240666,4.02061,-1.8007629,-0.7422891,-2.7246015,-9.193734,-8.805874
0.3274315,4.245212,4.02061,-1.8007629,-0.7422891,-2.7246015,-9.193734,-8.805874
0.327496,4.249911,4.122875,-1.8135461,-0.78596497,-2.5234885,-9.212888,-8.513782
0.327496,4.249911,4.122875,-1.8135461,-0.78596497,-2.5234885,-9.212888,-8.513782
0.32755223,4.2546325,4.122875,-1.8135461,-0.78596497,-2.5234885,-9.212888,-8.513782
0.32756212,4.260008,4.218749,-1.821003,-0.826445,-2.4420857,-9.222465,-8.1402855
0.32756096,4.2654543,4.218749,-1.821003,-0.826445,-2.2170308,-9.102755,-7.8529816
0.32746422,4.27392,4.3071656,-1.821003,-0.86585975,-2.2170308,-9.102755,-7.8529816
0.32735145,4.2788715,4.388126,-1.8082197,-0.90207875,-2.0494366,-8.973468,-7.3885064
0.32722953,4.283828,4.388126,-1.8082197,-0.90207875,-2.0494366,-8.973468,-7.3885064
0.32704875,4.288855,4.458433,-1.7837187,-0.93616724,-1.9488802,-8.882488,-6.751649
0.326859,4.293886,4.458433,-1.7837187,-0.93616724,-1.9488802,-8.882488,-6.751649
0.3266,4.2989874,4.5191536,-1.7453691,-0.96812516,-1.5801731,-8.7053175,-6.2632318
0.3263328,4.304076,4.5191536,-1.7453691,-0.96812516,-1.5801731,-8.7053175,-6.2632318
0.32599545,4.309229,4.5670905,-1.6953017,-0.9979526,-1.3120226,-8.451532,-5.7269306
0.32565063,4.3143635,4.5670905,-1.6953017,-0.9979526,-1.3120226,-8.451532,-5.7269306
0.32565063,4.3143635,4.5670905,-1.6953017,-0.9979526,-1.3120226,-8.451532,-5.7269306
0.32480866,4.324706,4.5958524,-1.632451,-1.0288452,-1.1779473,-8.197746,-5.2624555
0.32431173,4.3298364,4.602244,-1.5632089,-1.0597379,-1.1300632,-7.929596,-4.6351743
0.32380557,4.334979,4.602244,-1.5632089,-1.0597379,-1.1300632,-7.929596,-4.6351743
0.323216,4.3401003,4.580939,-1.4897057,-1.0906305,-1.0390835,-7.723695,-3.9360676
0.3226197,4.3452115,4.580939,-1.4897057,-1.0906305,-1.0390835,-7.723695,-3.9360676
0.3226197,4.3452115,4.5361977,-1.4119414,-1.1161969,-0.9528923,-7.632715,-3.0789435
0.32193896,4.3503246,4.5361977,-1.4119414,-1.1161969,-0.9528923,-7.632715,-3.0789435
0.32125053,4.3554273,4.469086,-1.3331118,-1.1375022,-0.81881696,-7.5225816,-2.3127987
0.32051283,4.360505,4.469086,-1.3331118,-1.1375022,-0.81881696,-7.5225816,-2.3127987
0.31965315,4.366335,4.469086,-1.3331118,-1.1375022,-0.81881696,-7.5225816,-2.3127987
0.3188855,4.371257,4.380669,-1.2500211,-1.1534811,-0.8810662,-7.321469,-1.7477672
0.31819257,4.3756447,4.380669,-1.2500211,-1.1534811,-0.8810662,-7.321469,-1.7477672
0.31656033,4.3854494,4.275208,-1.1679958,-1.165199,-0.8379706,-7.129933,-1.13964
0.31656033,4.3854494,4.275208,-1.1679958,-1.165199,-0.8379706,-7.129933,-1.13964
0.31656033,4.3854494,4.275208,-1.1679958,-1.165199,-0.8379706,-7.129933,-1.13964
0.3141276,4.3991127,4.011022,-1.0241851,-1.1737212,-0.94810385,-6.6750345,0
0.31327802,4.403652,4.011022,-1.0241851,-1.1737212,-0.94810385,-6.6750345,0
0.3124011,4.407996,3.8544285,-0.95920396,-1.1683949,-0.11492168,-6.4404025,0.6464345
0.3115183,4.4123373,3.8544285,-0.95920396,-1.1683949,-0.11492168,-6.4404025,0.6464345
0.3106042,4.416481,3.6818557,-0.8920923,-1.160938,0.9528923,-6.2392898,1.0342951
0.30968666,4.4206133,3.6818557,-0.8920923,-1.160938,0.9528923,-6.2392898,1.0342951
0.30874234,4.4245276,3.4922385,-0.8111322,-1.1577423,1.70946,-5.9424086,1.4891934
0.30874234,4.4245276,3.4922385,-0.8111322,-1.1577423,1.70946,-5.9424086,1.4891934
0.3077906,4.4284515,3.4922385,-0.8111322,-1.1577423,1.70946,-5.9424086,1.4891934
0.30678755,4.432222,3.2855773,-0.71099734,-1.1588075,1.9871874,-5.6359506,1.982399
0.30581075,4.4358764,3.0597413,-0.5948835,-1.165199,2.0494366,-5.3438582,2.4708161
0.3048179,4.439209,3.0597413,-0.5948835,-1.165199,2.0494366,-5.3438582,2.4708161
0.30274722,4.4457483,2.8179262,-0.4691823,-1.1715907,1.9297266,-5.032612,3.0454245
0.30169594,4.448862,2.8179262,-0.4691823,-1.1715907,1.9297266,-5.032612,3.0454245
0.3006161,4.451685,2.560132,-0.3402853,-1.1694602,1.8148049,-4.8937483,3.620033
0.29953444,4.454506,2.560132,-0.3402853,-1.1694602,1.8148049,-4.8937483,3.620033
0.29843253,4.4570208,2.289555,-0.21351884,-1.156677,1.8674773,-4.8027687,4.0701427
0.29733148,4.459529,2.289555,-0.21351884,-1.156677,1.8674773,-4.8027687,4.0701427
0.296223,4.4617147,2.0051293,-0.08781763,-1.1321759,1.9728222,-4.8123455,4.55856
0.29511386,4.4638987,2.0051293,-0.08781763,-1.1321759,1.9728222,-4.8123455,4.55856
0.29400888,4.4657493,1.7121816,0.03681831,-1.0970222,2.0494366,-4.8745947,4.927267
0.29290348,4.467599,1.7121816,0.03681831,-1.0970222,2.0494366,-4.8745947,4.927267
0.2918108,4.4691033,1.407516,0.16038899,-1.0533463,2.1499932,-4.9464207,5.2145715
0.2907169,4.4706087,1.407516,0.16038899,-1.0533463,2.1499932,-4.9464207,5.2145715
0.28965178,4.4717546,1.0911324,0.28395966,-0.9968873,2.1978772,-5.00867,5.592855
0.28858575,4.4729013,1.0911324,0.28395966,-0.9968873,2.1978772,-5.00867,5.592855
0.28755832,4.4736824,0.76622677,0.40966088,-0.92657983,2.2218192,-5.0900726,5.90889
0.28653216,4.4744625,0.76622677,0.40966088,-0.92657983,2.2218192,-5.0900726,5.90889
0.28555217,4.4748716,0.43706006,0.5364273,-0.84881556,2.2840683,-5.161899,6.0956373
0.28456932,4.4752827,0.43706006,0.5364273,-0.84881556,2.2840683,-5.161899,6.0956373
0.28364107,4.4753156,0.10150176,0.6631938,-0.76252913,2.2218192,-5.21936,6.277597
0.28271922,4.4753485,0.10150176,0.6631938,-0.76252913,2.2218192,-5.21936,6.277597
0.28185996,4.474999,-0.23938286,0.78782976,-0.66559005,2.15957,-5.305551,6.517017
0.28100052,4.4746504,-0.23938286,0.78782976,-0.66559005,2.15957,-5.305551,6.517017
0.28021836,4.4739203,-0.582398,0.9082046,-0.56012887,2.0590134,-5.3199162,6.5840545
0.2794332,4.473189,-0.582398,0.9082046,-0.56012887,2.0590134,-5.3199162,6.5840545
0.27872983,4.472073,-0.92860895,1.0253837,-0.4482761,1.9967642,-5.329493,6.6510925
0.27802888,4.4709635,-0.92860895,1.0253837,-0.4482761,1.9967642,-5.329493,6.6510925
0.27802888,4.4709635,-1.2758852,1.139367,-0.3289665,2.0207062,-5.267244,6.703765
0.27679086,4.467953,-1.2758852,1.139367,-0.3289665,2.0207062,-5.267244,6.703765
0.2762632,4.4660664,-1.625292,1.2458935,-0.20646107,2.0925324,-5.2528787,6.655881
0.2757341,4.4641814,-1.625292,1.2458935,-0.20646107,2.0925324,-5.2528787,6.655881
0.27529797,4.461916,-1.9757639,1.3470936,-0.0828904,2.0973208,-5.185841,6.6079965
0.27485874,4.4596486,-1.9757639,1.3470936,-0.0828904,2.0973208,-5.185841,6.6079965
0.27451423,4.456992,-2.3273013,1.4408369,0.042810805,1.9488802,-5.12838,6.469133
0.27416617,4.454336,-2.3273013,1.4408369,0.042810805,1.9488802,-5.12838,6.469133
0.27391422,4.451298,-2.6777732,1.5281886,0.16851202,1.733402,-5.1475334,6.325481
0.27365807,4.448264,-2.6777732,1.5281886,0.16851202,1.733402,-5.1475334,6.325481
0.2734971,4.444851,-3.0250494,1.6048876,0.2920827,1.4939818,-5.2863975,6.220136
0.27333048,4.441435,-3.0250494,1.6048876,0.2920827,1.4939818,-5.2863975,6.220136
0.27325845,4.437658,-3.3627381,1.6741297,0.41565338,1.3790601,-5.5258174,6.0525417
0.27318004,4.433881,-3.3627381,1.6741297,0.41565338,1.3790601,-5.5258174,6.0525417
0.27319384,4.429754,-3.687644,1.7369804,0.5381588,1.316811,-5.8226986,5.722142
0.2732002,4.4256306,-3.687644,1.7369804,0.5381588,1.316811,-5.8226986,5.722142
0.27329913,4.42117,-3.9976358,1.7923741,0.6606642,1.2258313,-6.1770406,5.3678
0.2733897,4.416709,-3.9976358,1.7923741,0.6606642,1.2258313,-6.1770406,5.3678
0.27357152,4.4119306,-4.292714,1.8424416,0.7821043,1.0630256,-6.5265937,4.9081135
0.27374396,4.407151,-4.292714,1.8424416,0.7821043,1.0630256,-6.5265937,4.9081135
0.27400747,4.402074,-4.5707483,1.8839868,0.90247923,0.89543146,-6.823475,4.43885
0.27426076,4.396995,-4.5707483,1.8839868,0.90247923,0.89543146,-6.823475,4.43885
0.27460426,4.3916354,-4.8328032,1.9170101,1.0207236,0.7517793,-7.1107793,4.0797195
0.2749365,4.3862743,-4.8328032,1.9170101,1.0207236,0.7517793,-7.1107793,4.0797195
0.27535543,4.3806496,-5.0799446,1.9404459,1.1336416,0.62249243,-7.422025,3.7684734
0.27576217,4.375023,-5.0799446,1.9404459,1.1336416,0.62249243,-7.422025,3.7684734
0.27625456,4.3691525,-5.308976,1.9553596,1.2433639,0.45010993,-7.7667904,3.5003228
0.27673438,4.363274,-5.308976,1.9553596,1.2433639,0.45010993,-7.7667904,3.5003228
0.2772973,4.3571835,-5.5188336,1.9670775,1.3520209,0.23463176,-7.9583263,3.064578
0.27784744,4.351078,-5.5188336,1.9670775,1.3520209,0.23463176,-7.9583263,3.064578
0.27847442,4.3447766,-5.7063203,1.9777302,1.457482,0.16759412,-8.073248,2.4995465
0.27908623,4.3384786,-5.7063203,1.9777302,1.457482,0.16759412,-8.073248,2.4995465
0.27977294,4.331995,-5.8725014,1.9819912,1.5586821,0.095768064,-8.1402855,1.9728222
0.28044432,4.3255076,-5.8725014,1.9819912,1.5586821,0.095768064,-8.1402855,1.9728222
0.28118715,4.3188586,-6.0227036,1.9830564,1.6556212,-0.14844051,-8.365341,1.3694834
0.28192702,4.312086,-6.0227036,1.9830564,1.6556212,-0.14844051,-8.365341,1.3694834
0.28271636,4.305304,-6.1537313,1.9819912,1.7461686,-0.2681506,-8.461109,0.8762778
0.28271636,4.305304,-6.1537313,1.9819912,1.7461686,-0.2681506,-8.461109,0.8762778
0.28351682,4.298273,-6.2677145,1.9777302,1.8313898,-0.40222588,-8.643068,0.22026655
0.28512645,4.2847238,-6.2677145,1.9777302,1.8313898,-0.40222588,-8.643068,0.22026655
0.2859896,4.2777157,-6.3646536,1.9713385,1.9091542,-0.6464345,-8.7532015,-0.4309563
0.28684047,4.2706614,-6.3646536,1.9713385,1.9091542,-0.6464345,-8.7532015,-0.4309563
0.28773078,4.263562,-6.443483,1.9617512,1.9783963,-0.8714894,-8.75799,-1.0007763
0.2886096,4.256408,-6.443483,1.9617512,1.9783963,-0.8714894,-8.75799,-1.0007763
0.2895218,4.249216,-6.503138,1.9457722,2.0391164,-1.0342951,-8.901642,-1.5562311
0.2904178,4.242005,-6.503138,1.9457722,2.0391164,-1.0342951,-8.901642,-1.5562311
0.29134673,4.234743,-6.5478787,1.924467,2.0913143,-1.1731589,-9.093178,-1.9776106
0.29225832,4.2274704,-6.5478787,1.924467,2.0913143,-1.1731589,-9.093178,-1.9776106
0.29319647,4.2201915,-6.57238,1.89677,2.1349902,-1.412579,-9.375694,-2.4708161
0.2941146,4.2129226,-6.57238,1.89677,2.1349902,-1.412579,-9.375694,-2.4708161
0.2950665,4.2056227,-6.5745106,1.8637469,2.1733396,-1.7621324,-9.653421,-2.9975405
0.2960003,4.1983185,-6.5745106,1.8637469,2.1733396,-1.7621324,-9.653421,-2.9975405
0.29696846,4.1910443,-6.5500097,1.8222015,2.2031672,-2.2457612,-10.079589,-3.4955344
0.29791662,4.1837792,-6.5500097,1.8222015,2.2031672,-2.2457612,-10.079589,-3.4955344
0.2989059,4.1765804,-6.5010076,1.7646773,2.2276683,-2.753332,-10.539276,-3.9791632
0.29988086,4.1693473,-6.5010076,1.7646773,2.2276683,-2.753332,-10.539276,-3.9791632
0.30089974,4.1622295,-6.4211125,1.6890435,2.2489736,-3.1986535,-11.070788,-4.5202527
0.3018996,4.155113,-6.4211125,1.6890435,2.2489736,-3.1986535,-11.070788,-4.5202527
0.30295506,4.148132,-6.304999,1.5910392,2.267083,-3.596091,-11.678916,-5.032612
0.30399397,4.141138,-6.304999,1.5910392,2.267083,-3.596091,-11.678916,-5.032612
0.30509892,4.134322,-6.150535,1.47386,2.2809315,-4.0222588,-12.229582,-5.568913
0.3061889,4.127488,-6.150535,1.47386,2.2809315,-4.0222588,-12.229582,-5.568913
0.30734873,4.120895,-5.952396,1.3353757,2.2905188,-4.3526587,-12.761095,-6.105214
0.30849457,4.114283,-5.952396,1.3353757,2.2905188,-4.3526587,-12.761095,-6.105214
0.3097218,4.1079583,-5.709516,1.1723902,2.2947798,-4.6686935,-13.268666,-6.7612257
0.31093517,4.1016216,-5.709516,1.1723902,2.2947798,-4.6686935,-13.268666,-6.7612257
0.3122413,4.0956316,-5.418699,0.9891647,2.295845,-4.960786,-13.728353,-7.2927384
0.313535,4.089629,-5.418699,0.9891647,2.295845,-4.960786,-13.728353,-7.2927384
0.31493008,4.084012,-5.082075,0.78996027,2.2926493,-5.1906295,-14.130578,-7.872135
0.31631285,4.07839,-5.082075,0.78996027,2.2926493,-5.1906295,-14.130578,-7.872135
0.3177865,4.073204,-4.69858,0.5747769,2.2851925,-5.1571107,-14.997279,-8.528147
0.31925058,4.068012,-4.69858,0.5747769,2.2851925,-5.1571107,-14.997279,-8.528147
0.32083517,4.063315,-4.2586255,0.35107133,2.2692134,-5.554548,-17.367538,-8.001422
0.32241172,4.058612,-4.2586255,0.35107133,2.2692134,-5.554548,-17.367538,-8.001422
0.32424793,4.0543194,-3.739842,0.12417,2.251104,-7.7907324,-12.3876,-10.716447
0.3260791,4.050024,-3.739842,0.12417,2.251104,-7.7907324,-12.3876,-10.716447
0.3278181,4.0464735,-3.216797,-0.13895033,2.1967754,-1.6136919,-17.492037,-7.5848308
0.32955304,4.042918,-3.216797,-0.13895033,2.1967754,-1.6136919,-17.492037,-7.5848308
0.33147505,4.039975,-2.6681857,-0.3168495,2.1818619,-7.5848308,-18.344374,-9.270349
0.33339474,4.0370255,-2.6681857,-0.3168495,2.1818619,-7.5848308,-18.344374,-9.270349
0.33540517,4.0347877,-2.0300925,-0.536294,2.1403165,-7.0581064,-16.998833,-10.510546
0.33741388,4.0325446,-2.0300925,-0.536294,2.1403165,-7.0581064,-16.998833,-10.510546
0.33947897,4.031067,-1.35578,-0.80367535,2.0540302,-6.3542113,-16.400282,-11.200075
0.341541,4.0295863,-1.35578,-0.80367535,2.0540302,-6.3542113,-16.400282,-11.200075
0.34379315,4.0286283,-0.68998975,-1.035903,1.9720048,-7.0485296,-14.441825,-12.306197
0.34603778,4.027666,-0.68998975,-1.035903,1.9720048,-7.0485296,-14.441825,-12.306197
0.34827787,4.0274067,-0.0614837,-1.261739,1.8740004,-6.26802,-12.373235,-13.263878
0.35051587,4.0271473,-0.0614837,-1.261739,1.8740004,-6.26802,-12.373235,-13.263878
0.3527756,4.0275383,0.49991068,-1.4737266,1.7525603,-5.329493,-11.152191,-13.43626
0.3550319,4.0279293,0.49991068,-1.4737266,1.7525603,-5.329493,-11.152191,-13.43626
0.35728744,4.028889,0.98034495,-1.6388427,1.6172717,-4.6112323,-10.625467,-13.388376
0.35953066,4.029846,0.98034495,-1.6388427,1.6172717,-4.6112323,-10.625467,-13.388376
0.36172926,4.0312943,1.3947328,-1.7613481,1.4596125,-4.1276035,-9.964667,-13.421895
0.36392012,4.032741,1.3947328,-1.7613481,1.4596125,-4.1276035,-9.964667,-13.421895
0.36602524,4.0346136,1.7547922,-1.8476346,1.2795829,-3.9025488,-9.255983,-13.546393
0.368135,4.036495,1.7547922,-1.8476346,1.2795829,-3.9025488,-9.255983,-13.546393
0.37012786,4.0387564,2.0690453,-1.9051588,1.0825089,-3.7014358,-8.619126,-13.79539
0.37211657,4.0410185,2.0690453,-1.9051588,1.0825089,-3.7014358,-8.619126,-13.79539
0.373952,4.043618,2.3406878,-1.9498999,0.86199915,-3.289633,-8.106767,-13.910312
0.37578842,4.0462265,2.3406878,-1.9498999,0.86199915,-3.289633,-8.106767,-13.910312
0.37745503,4.049155,2.5814373,-1.9861189,0.6223147,-2.8491,-7.747637,-13.910312
0.37911487,4.0520825,2.5814373,-1.9861189,0.6223147,-2.8491,-7.747637,-13.910312
0.3832881,4.0612655,2.7987514,-2.0095546,0.37091225,-2.4995465,-7.5225816,-13.852851
0.3832881,4.0612655,2.7987514,-2.0095546,0.37091225,-2.4995465,-7.5225816,-13.852851
0.3832881,4.0612655,2.7987514,-2.0095546,0.37091225,-2.4995465,-7.5225816,-13.852851
0.3832881,4.0612655,2.7987514,-2.0095546,0.37091225,-2.4995465,-7.5225816,-13.852851
0.3832881,4.0612655,2.7987514,-2.0095546,0.37091225,-2.4995465,-7.5225816,-13.852851
0.38706478,4.072071,3.1928992,-2.0234032,-0.145741,-2.1499932,-7.3549876,-13.484144
0.38756064,4.074148,3.3835816,-2.0127504,-0.403535,-2.4037786,-7.374141,-13.383588
0.38804165,4.076511,3.3835816,-2.0127504,-0.403535,-2.4037786,-7.374141,-13.383588
0.3889549,4.0810337,3.5700028,-2.0020978,-0.6549374,-2.7629087,-7.469909,-13.22557
0.39005,4.0888805,3.5700028,-2.0020978,-0.6549374,-2.7629087,-7.469909,-13.22557
0.39043593,4.093408,3.7489672,-1.9967716,-0.8967524,-2.72939,-7.3789296,-13.144167
0.39081034,4.09791,3.7489672,-1.9967716,-0.8967524,-2.72939,-7.3789296,-13.144167
0.39098546,4.1026278,3.9162138,-1.9903799,-1.1215233,-2.585738,-7.335834,-12.842498
0.391151,4.10736,3.9162138,-1.9903799,-1.1215233,-2.585738,-7.335834,-12.842498
0.39112568,4.1122837,4.0664163,-1.9775968,-1.3324456,-2.6240451,-7.249643,-12.53604
0.39108932,4.1172066,4.0664163,-1.9775968,-1.3324456,-2.6240451,-7.249643,-12.53604
0.3908702,4.1223116,4.196378,-1.9562914,-1.5263238,-2.7820623,-7.2592196,-12.200851
0.3906403,4.1273894,4.196378,-1.9562914,-1.5263238,-2.7820623,-7.2592196,-12.200851
0.3902449,4.132594,4.3061004,-1.9275293,-1.6978313,-3.1268275,-7.3645644,-11.81778
0.38983488,4.137822,4.3061004,-1.9275293,-1.6978313,-3.1268275,-7.3645644,-11.81778
0.38927096,4.1431656,4.396648,-1.8934408,-1.845903,-3.3327289,-7.489063,-11.405977
0.38869745,4.1484737,4.396648,-1.8934408,-1.845903,-3.3327289,-7.489063,-11.405977
0.38798812,4.153901,4.472282,-1.8582872,-1.9673432,-3.5290532,-7.599196,-11.104307
0.38798812,4.153901,4.472282,-1.8582872,-1.9673432,-3.5290532,-7.599196,-11.104307
0.3864309,4.1647964,4.5319366,-1.8231335,-2.0653474,-3.643975,-7.723695,-10.879252
0.3855817,4.1702695,4.5319366,-1.8231335,-2.0653474,-3.643975,-7.723695,-10.879252
0.38464242,4.1757894,4.5798736,-1.789045,-2.1377854,-3.8977604,-7.9583263,-10.620679
0.3836895,4.181304,4.5798736,-1.789045,-2.1377854,-3.8977604,-7.9583263,-10.620679
0.38266623,4.1868596,4.622484,-1.7656091,-2.188918,-3.9121256,-8.101978,-10.184934
0.38162923,4.1924095,4.622484,-1.7656091,-2.188918,-3.9121256,-8.101978,-10.184934
0.3805325,4.1979885,4.6587033,-1.748565,-2.2219415,-3.5865142,-8.360553,-9.763555
0.37941998,4.2035728,4.6587033,-1.748565,-2.2219415,-3.5865142,-8.360553,-9.763555
0.37826705,4.2091665,4.694922,-1.7336512,-2.240051,-3.3279405,-8.513782,-9.3421755
0.37709022,4.214804,4.694922,-1.7336512,-2.240051,-3.3279405,-8.513782,-9.3421755
0.37709022,4.214804,4.735402,-1.7134112,-2.2432468,-3.1651347,-8.643068,-8.853758
0.37588406,4.220456,4.735402,-1.7134112,-2.2432468,-3.1651347,-8.643068,-8.853758
0.37465954,4.226124,4.7801433,-1.6889101,-2.2336593,-3.1603463,-8.6334915,-8.48984
0.37219483,4.237364,4.7801433,-1.6889101,-2.2336593,-3.1603463,-8.6334915,-8.48984
0.37093505,4.243032,4.823819,-1.664409,-2.21555,-2.906561,-8.599973,-8.1163435
0.3696601,4.248704,4.823819,-1.664409,-2.21555,-2.906561,-8.599973,-8.1163435
0.36838427,4.254402,4.867495,-1.6420385,-2.188918,-2.801216,-8.413225,-7.776367
0.36709464,4.260099,4.867495,-1.6420385,-2.188918,-2.801216,-8.413225,-7.776367
0.36580998,4.2658114,4.907975,-1.6186026,-2.1548297,-2.5905263,-8.169016,-7.441179
0.36451423,4.2715116,4.907975,-1.6186026,-2.1548297,-2.5905263,-8.169016,-7.441179
0.36321962,4.277244,4.9420633,-1.5930363,-2.115415,-2.3415294,-8.034941,-7.0581064
0.36191693,4.2829523,4.9420633,-1.5930363,-2.115415,-2.3415294,-8.034941,-7.0581064
0.36060983,4.2886806,4.9697604,-1.5696005,-2.0781307,-1.9153614,-7.920019,-6.531382
0.36060983,4.2886806,4.9697604,-1.5696005,-2.0781307,-1.9153614,-7.920019,-6.531382
0.35797665,4.3001356,4.9910655,-1.5482953,-2.0387158,-1.6519991,-7.7572136,-6.066907
0.35665476,4.3058453,4.9910655,-1.5482953,-2.0387158,-1.6519991,-7.7572136,-6.066907
0.355336,4.3115644,5.0038486,-1.5237942,-1.9961053,-1.3503298,-7.565677,-5.5880666
0.35400644,4.317277,5.0038486,-1.5237942,-1.9961053,-1.3503298,-7.565677,-5.5880666
0.35268855,4.322973,5.0059795,-1.4960972,-1.95456,-1.1731589,-7.2304893,-5.2289367
0.35136032,4.328661,5.0059795,-1.4960972,-1.95456,-1.1731589,-7.2304893,-5.2289367
0.35003814,4.334328,4.9995875,-1.4673351,-1.91408,-0.90979666,-6.9862804,-4.855441
0.34870586,4.3399878,4.9995875,-1.4673351,-1.91408,-0.90979666,-6.9862804,-4.855441
0.3473749,4.3456187,4.980413,-1.438573,-1.8746653,-0.6464345,-6.813898,-4.357447
0.34603423,4.351242,4.980413,-1.438573,-1.8746653,-0.6464345,-6.813898,-4.357447
0.3446897,4.3568363,4.94952,-1.4087455,-1.837381,-0.47884035,-6.6989765,-3.7588966
0.34333715,4.3624177,4.94952,-1.4087455,-1.837381,-0.47884035,-6.6989765,-3.7588966
0.3419807,4.3679647,4.9101057,-1.3757224,-1.8000968,-0.24420857,-6.612785,-3.1364043
0.340616,4.3734984,4.9101057,-1.3757224,-1.8000968,-0.24420857,-6.612785,-3.1364043
0.3392508,4.3790083,4.862169,-1.3395034,-1.764943,-0.076614454,-6.646304,-2.5187001
0.337877,4.384505,4.862169,-1.3395034,-1.764943,-0.076614454,-6.646304,-2.5187001
0.3365228,4.3899474,4.811036,-1.3000885,-1.7308545,0.12449849,-6.588843,-1.8531121
0.3351513,4.3954096,4.811036,-1.3000885,-1.7308545,0.12449849,-6.588843,-1.8531121
0.33381286,4.4008007,4.755642,-1.2564127,-1.696766,0.19632454,-6.5744777,-1.1683705
0.33246008,4.4062023,4.755642,-1.2564127,-1.696766,0.19632454,-6.5744777,-1.1683705
0.33113727,4.411541,4.694922,-1.2106063,-1.660547,0.23942018,-6.5984197,-0.5602432
0.32981116,4.4168477,4.694922,-1.2106063,-1.660547,0.23942018,-6.5984197,-0.5602432
0.3285137,4.4221044,4.6278105,-1.1711916,-1.6253934,0.24899697,-6.646304,0.17238252
0.3272072,4.4273562,4.6278105,-1.1711916,-1.6253934,0.24899697,-6.646304,0.17238252
0.32593513,4.4324913,4.5532417,-1.1339073,-1.5902396,0.33518824,-6.646304,0.78529817
0.32464945,4.437642,4.5532417,-1.1339073,-1.5902396,0.33518824,-6.646304,0.78529817
0.3233976,4.4426794,4.4712167,-1.1008841,-1.5529554,0.38307226,-6.631939,1.412579
0.322133,4.4477324,4.4712167,-1.1008841,-1.5529554,0.38307226,-6.631939,1.412579
0.32089606,4.452676,4.3827996,-1.072122,-1.5156711,0.4309563,-6.5601125,1.8052281
0.31965306,4.45761,4.3827996,-1.072122,-1.5156711,0.4309563,-6.5601125,1.8052281
0.31843764,4.46243,4.282665,-1.0465556,-1.4794521,0.46926352,-6.4308257,2.2601264
0.31721509,4.467245,4.282665,-1.0465556,-1.4794521,0.46926352,-6.4308257,2.2601264
0.31601915,4.4719343,4.1729426,-1.0220546,-1.4400374,0.7326257,-6.215348,2.5809495
0.3148166,4.4766207,4.1729426,-1.0220546,-1.4400374,0.7326257,-6.215348,2.5809495
0.31364363,4.4811687,4.0536327,-0.9943577,-1.3963615,1.2018893,-6.081272,3.0597897
0.3124646,4.485713,4.0536327,-0.9943577,-1.3963615,1.2018893,-6.081272,3.0597897
0.31131232,4.4901075,3.9247358,-0.95707345,-1.3548162,1.6950948,-5.8226986,3.5673606
0.3101545,4.494499,3.9247358,-0.95707345,-1.3548162,1.6950948,-5.8226986,3.5673606
0.30901894,4.4987245,3.7830558,-0.90487546,-1.3154013,2.1547816,-5.48751,3.9839516
0.30787823,4.5029464,3.7830558,-0.90487546,-1.3154013,2.1547816,-5.48751,3.9839516
0.30675632,4.5069814,3.6243312,-0.83669853,-1.2791824,2.4660277,-5.0900726,4.4244847
0.30562982,4.5110135,3.6243312,-0.83669853,-1.2791824,2.4660277,-5.0900726,4.4244847
0.30452222,4.5148344,3.4453669,-0.7504121,-1.2429634,2.3942018,-4.6351743,4.7979803
0.30341062,4.5186534,3.4453669,-0.7504121,-1.2429634,2.3942018,-4.6351743,4.7979803
0.30231556,4.522232,3.2408361,-0.65027726,-1.2067444,2.3750482,-4.2281604,5.1523223
0.30121732,4.525808,3.2408361,-0.65027726,-1.2067444,2.3750482,-4.2281604,5.1523223
0.3001365,4.529112,3.0086086,-0.5416203,-1.165199,2.72939,-3.8307228,5.353435
0.29905316,4.532414,3.0086086,-0.5416203,-1.165199,2.72939,-3.8307228,5.353435
0.29799044,4.5354123,2.7476187,-0.42018014,-1.120458,3.0214825,-3.53863,5.6551046
0.2969257,4.538409,2.7476187,-0.42018014,-1.120458,3.0214825,-3.53863,5.6551046
0.2958862,4.5410695,2.4568014,-0.28702208,-1.0714558,3.1411927,-3.2561142,5.932832
0.2948454,4.543729,2.4568014,-0.28702208,-1.0714558,3.1411927,-3.2561142,5.932832
0.29383463,4.5460205,2.137222,-0.14214613,-1.0171273,3.2034419,-2.944868,6.215348
